Subject,Round,Phase,afterbreak,Schema,Schema_RT,Schema_OB,Schema_AS,Cho_1,Cho_2,Cho_3,Cho_4,RT_1,RT_2,RT_3,RT_4,OB_1,OB_2,OB_3,OB_4,AS_1,AS_2,AS_3,AS_4,schema_payoff,AC,performance,payoff,breakR,type,dwellmean_1,dwellmean_2,dwellmean_3,dwellmean_4,param_w,param_Phi,param_thres_item_final,param_thres_schema,param_theta_shift,rep
1,1,1,0,8,10.613999999999992,17,48,119,114,95,92,13.846999999999989,3.537999999999997,0.061,3.4159999999999973,20,11,1,10,58,15,1,15,2,0,10,2.5,6,Lc,0.2387413793103448,0.23586666666666664,0.061,0.22773333333333332,0.5,1,15,30,3,1
1,1,2,0,5,10.674999999999992,18,50,47,76,57,58,31.658999999999978,0.061,0.061,0.061,20,1,1,1,133,1,1,1,5,0,16,4,6,Lc,0.23803759398496238,0.061,0.061,0.061,0.5,1,15,30,3,1
1,2,3,0,8,9.088999999999993,17,39,119,96,3,117,22.508999999999983,5.306999999999996,1.524999999999999,2.3179999999999983,20,15,7,8,101,24,7,9,2,0,13,3.25,6,Lc,0.22286138613861384,0.221125,0.21785714285714283,0.25755555555555554,0.5,1,15,30,3,1
1,2,4,0,1,12.93199999999999,18,59,79,52,105,60,17.506999999999987,10.552999999999992,1.2809999999999993,0.7319999999999998,20,19,4,3,78,50,6,3,3,0,13,3.25,6,Lc,0.22444871794871793,0.21105999999999997,0.2135,0.244,0.5,1,15,30,3,1
1,3,5,0,6,14.456999999999988,17,52,11,4,9,41,22.630999999999982,1.8909999999999987,7.136999999999994,6.221999999999995,20,6,12,15,89,7,27,29,6,0.5,41,5.75,6,Lc,0.2542808988764045,0.27014285714285713,0.2643333333333333,0.21455172413793103,0.5,1,15,30,3,1
1,3,6,0,9,12.93199999999999,19,59,88,66,61,24,15.859999999999987,3.842999999999997,5.550999999999996,14.090999999999989,20,8,14,15,71,13,23,63,4,0,17,4.25,6,Lc,0.22338028169014082,0.29561538461538456,0.2413478260869565,0.22366666666666665,0.5,1,15,30,3,1
1,4,7,0,5,9.332999999999993,18,47,37,41,39,1,12.80999999999999,1.0369999999999995,5.123999999999996,1.9519999999999986,20,5,13,7,65,6,20,10,5,0.5,36,5.25,6,Lc,0.19707692307692307,0.17283333333333334,0.2562,0.19519999999999998,0.5,1,15,30,3,1
1,4,8,0,9,10.430999999999992,19,48,71,63,66,62,14.82299999999999,3.2939999999999974,4.147999999999997,9.149999999999993,20,9,12,16,69,13,17,46,4,1,48,4,6,Lc,0.21482608695652172,0.2533846153846154,0.24399999999999997,0.19891304347826086,0.5,1,15,30,3,1
1,5,9,0,6,7.807999999999994,19,47,4,61,92,100,37.33199999999997,1.0369999999999995,2.744999999999998,0.061,20,4,9,1,193,5,11,1,6,0,15,3.75,6,Lc,0.19343005181347148,0.2074,0.2495454545454545,0.061,0.5,1,15,30,3,1
1,5,10,0,8,5.001999999999996,12,22,47,80,118,115,30.804999999999975,0.061,1.2809999999999993,0.183,20,1,4,3,135,1,6,3,2,0,12,3,6,Lc,0.22818518518518516,0.061,0.2135,0.061,0.5,1,15,30,3,1
1,6,11,1,1,6.953999999999994,12,27,75,73,80,18,8.783999999999994,0.7319999999999998,10.674999999999992,4.6969999999999965,18,5,18,15,35,7,56,26,3,0.5,24,3.75,6,Lc,0.25097142857142857,0.10457142857142857,0.190625,0.18065384615384614,0.5,1,15,30,3,1
1,6,12,1,3,7.441999999999994,15,39,8,101,26,27,15.920999999999989,1.2809999999999993,1.524999999999999,0.488,20,2,5,2,72,2,6,2,5,0,18,4.5,6,Lc,0.221125,0.6404999999999998,0.25416666666666665,0.244,0.5,1,15,30,3,1
1,7,13,1,8,5.184999999999996,13,19,33,118,116,112,12.87099999999999,0.061,3.2939999999999974,11.040999999999991,20,1,10,15,49,1,16,51,2,0.5,17,2.75,6,Lc,0.2626734693877551,0.061,0.20587499999999997,0.21649019607843137,0.5,1,15,30,3,1
1,7,14,1,4,12.26099999999999,20,69,55,104,106,76,17.140999999999988,2.500999999999998,1.0369999999999995,5.001999999999996,20,12,3,10,82,14,4,17,2,0,11,2.75,6,Lc,0.20903658536585365,0.17864285714285713,0.2592499999999999,0.29423529411764704,0.5,1,15,30,3,1
1,8,15,1,9,8.478999999999994,17,45,67,36,25,79,14.94499999999999,26.41299999999998,3.0499999999999976,0.061,20,19,11,1,79,116,14,1,4,0,17,4.25,6,Lc,0.1891772151898734,0.22769827586206892,0.21785714285714286,0.061,0.5,1,15,30,3,1
1,8,16,1,2,9.759999999999993,17,39,58,50,55,100,17.262999999999987,5.184999999999996,0.488,0.183,20,15,2,2,76,25,2,2,4,0.5,26,3.5,6,Lc,0.22714473684210523,0.2074,0.244,0.0915,0.5,1,15,30,3,1
1,9,17,1,10,7.9299999999999935,18,40,86,100,98,87,14.639999999999988,3.9649999999999967,3.537999999999997,3.4159999999999973,20,12,11,7,67,18,16,9,3,0,10,2.5,6,Lc,0.21850746268656715,0.22027777777777777,0.221125,0.3795555555555554,0.5,1,15,30,3,1
1,9,18,1,5,9.515999999999993,17,53,44,46,74,43,9.698999999999993,3.1109999999999975,1.7079999999999989,1.4029999999999991,19,12,6,6,55,18,7,7,5,0.5,33,4.5,6,Lc,0.17634545454545453,0.1728333333333333,0.24399999999999997,0.20042857142857143,0.5,1,15,30,3,1
1,10,19,1,6,7.258999999999994,20,42,3,37,9,7,14.090999999999989,3.0499999999999976,1.2199999999999993,0.7319999999999998,20,7,5,3,64,9,6,4,6,0.5,41,5.75,6,Lc,0.220171875,0.3388888888888888,0.20333333333333334,0.183,0.5,1,15,30,3,1
1,10,20,1,2,5.123999999999996,14,24,51,81,77,56,6.7709999999999955,3.1719999999999975,6.160999999999995,9.698999999999993,20,9,11,17,36,13,23,47,4,0,14,3.5,6,Lc,0.18808333333333332,0.24399999999999997,0.26786956521739125,0.20636170212765956,0.5,1,15,30,3,1
1,11,21,1,2,7.075999999999994,14,28,54,45,57,74,7.624999999999995,8.295999999999994,5.001999999999996,0.122,20,18,9,1,34,43,13,1,4,0,16,4,6,Lc,0.2242647058823529,0.19293023255813951,0.3847692307692307,0.122,0.5,1,15,30,3,1
1,11,22,1,7,4.818999999999996,12,21,16,18,29,86,16.34799999999999,2.1959999999999984,1.0979999999999994,0.427,20,8,3,3,80,10,4,3,6,0,20,5,6,Lc,0.20434999999999998,0.21959999999999996,0.27449999999999997,0.14233333333333334,0.5,1,15,30,3,1
1,12,23,1,6,11.650999999999991,19,52,10,49,111,2,14.578999999999988,8.844999999999994,0.305,2.439999999999998,20,14,2,11,63,28,2,12,6,0,18,4.5,6,Lc,0.2314126984126984,0.3158928571428571,0.1525,0.20333333333333334,0.5,1,15,30,3,1
1,12,24,1,5,5.977999999999995,17,29,40,44,48,107,11.467999999999991,1.8299999999999987,4.025999999999997,3.720999999999997,20,4,8,10,53,4,18,18,5,0.5,32,4.25,6,Lc,0.21637735849056602,0.4574999999999998,0.22366666666666665,0.2067222222222222,0.5,1,15,30,3,1
1,13,25,1,8,9.210999999999993,19,42,117,113,58,49,14.57899999999999,1.4029999999999991,5.306999999999996,0.8539999999999996,20,5,11,3,68,6,23,4,2,0,12,3,6,Lc,0.2143970588235294,0.2338333333333333,0.2307391304347826,0.2135,0.5,1,15,30,3,1
1,13,26,1,10,6.587999999999995,16,33,96,104,86,87,8.356999999999994,11.589999999999991,4.086999999999997,5.672999999999996,20,17,12,16,43,36,22,24,3,0.5,20,2.75,6,Lc,0.19434883720930232,0.3219444444444444,0.18577272727272726,0.23637499999999997,0.5,1,15,30,3,1
1,14,27,1,9,12.50499999999999,18,64,71,65,67,46,14.334999999999988,5.001999999999996,4.635999999999997,9.149999999999993,20,12,13,13,73,15,23,31,4,0.5,29,4.25,6,Lc,0.1963698630136986,0.3334666666666666,0.20156521739130434,0.29516129032258065,0.5,1,15,30,3,1
1,14,28,1,3,7.136999999999994,18,39,95,112,110,116,62.09799999999995,0.244,0.122,2.3789999999999982,20,3,2,8,286,3,2,9,5,0.5,15,2.25,6,Lc,0.21712587412587414,0.08133333333333333,0.061,0.2643333333333333,0.5,1,15,30,3,1
1,15,29,1,8,9.515999999999993,16,38,113,29,115,118,20.739999999999984,8.966999999999993,1.1589999999999994,0.427,20,14,6,2,87,36,7,2,2,0.5,17,2.75,6,Lc,0.23839080459770112,0.2490833333333333,0.16557142857142856,0.2135,0.5,1,15,30,3,1
1,15,30,1,9,10.308999999999992,20,56,68,105,64,70,12.01699999999999,4.330999999999997,1.4029999999999991,0.305,20,14,6,1,62,21,7,1,4,0.5,26,3.5,6,Lc,0.19382258064516128,0.20623809523809522,0.20042857142857143,0.305,0.5,1,15,30,3,1
1,16,31,1,6,8.661999999999994,20,55,9,5,2,119,10.918999999999992,1.646999999999999,8.844999999999994,1.646999999999999,20,7,14,5,70,7,34,6,6,0.5,38,5,6,Lc,0.15598571428571428,0.23528571428571426,0.2601470588235294,0.27449999999999997,0.5,1,15,30,3,1
1,16,32,1,5,8.356999999999994,19,40,45,98,101,106,30.07299999999998,0.244,0.6709999999999998,0.183,20,3,2,1,125,3,2,1,5,0.5,17,2.75,6,Lc,0.240584,0.08133333333333333,0.3354999999999999,0.183,0.5,1,15,30,3,1
1,17,33,1,4,16.40899999999999,20,80,50,105,108,43,24.643999999999984,13.785999999999989,1.3419999999999992,8.417999999999994,20,18,4,15,116,66,4,38,2,0,13,3.25,6,Lc,0.21244827586206894,0.20887878787878786,0.33549999999999996,0.22152631578947365,0.5,1,15,30,3,1
1,17,34,1,10,9.759999999999993,19,48,93,88,22,18,12.07799999999999,3.4159999999999973,5.367999999999996,9.820999999999993,20,11,12,16,59,15,23,47,3,0,18,4.5,6,Lc,0.20471186440677966,0.22773333333333332,0.23339130434782607,0.20895744680851064,0.5,1,15,30,3,1
1,1,1,0,2,11.89499999999999,19,56,50,24,98,23,17.628999999999987,7.807999999999994,0.6099999999999999,1.8909999999999987,20,16,2,7,77,37,3,10,4,0,18,4.5,6,Lc,0.22894805194805193,0.21102702702702703,0.20333333333333334,0.1891,0.5,1,15,30,3,2
1,1,2,0,9,10.552999999999992,19,57,63,69,65,80,16.530999999999988,1.1589999999999994,5.245999999999996,1.463999999999999,20,5,14,3,87,6,18,5,4,0.5,27,3.75,6,Lc,0.19001149425287356,0.19316666666666665,0.2914444444444444,0.29279999999999995,0.5,1,15,30,3,2
1,2,3,0,6,10.430999999999992,18,46,12,50,113,88,12.19999999999999,6.770999999999995,4.879999999999996,4.208999999999997,20,16,11,12,56,33,18,18,6,0,15,3.75,6,Lc,0.21785714285714283,0.20518181818181816,0.2711111111111111,0.2338333333333333,0.5,1,15,30,3,2
1,2,4,0,7,11.162999999999991,18,47,23,68,101,29,18.787999999999986,1.2199999999999993,3.537999999999997,5.855999999999995,20,5,11,11,75,5,16,24,6,0,17,4.25,6,Lc,0.25050666666666666,0.244,0.22112499999999996,0.24399999999999997,0.5,1,15,30,3,2
1,3,5,0,3,21.776999999999983,20,106,36,100,88,51,24.52199999999998,1.3419999999999992,2.0739999999999985,5.550999999999996,20,3,7,14,114,4,8,22,5,0,14,3.5,6,Lc,0.21510526315789472,0.3354999999999999,0.25925,0.2523181818181818,0.5,1,15,30,3,2
1,3,6,0,9,4.6969999999999965,14,23,2,64,62,71,24.94899999999998,0.6709999999999998,1.8909999999999987,1.646999999999999,20,4,7,8,97,4,7,13,4,0.5,30,4.5,6,Lc,0.2572061855670103,0.16775,0.27014285714285713,0.1266923076923077,0.5,1,15,30,3,2
1,4,7,0,10,11.77299999999999,20,51,101,57,95,49,19.214999999999986,0.6099999999999999,0.5489999999999999,0.5489999999999999,20,3,3,2,80,3,3,2,3,0,13,3.25,6,Lc,0.24018749999999997,0.20333333333333334,0.183,0.27449999999999997,0.5,1,15,30,3,2
1,4,8,0,8,9.576999999999993,18,43,111,25,118,31,11.284999999999991,1.7079999999999989,2.8669999999999978,0.6709999999999998,20,2,9,2,50,3,11,2,2,0,14,3.5,6,Lc,0.22569999999999998,0.5693333333333332,0.2606363636363636,0.3355,0.5,1,15,30,3,2
1,5,9,0,10,10.125999999999992,18,46,88,111,32,112,16.10399999999999,9.393999999999993,4.452999999999997,2.805999999999998,20,19,10,10,74,40,15,13,3,0,12,3,6,Lc,0.2176216216216216,0.23485,0.2968666666666666,0.21584615384615383,0.5,1,15,30,3,2
1,5,10,0,2,8.112999999999994,17,38,54,51,49,23,11.040999999999991,2.622999999999998,4.818999999999996,9.637999999999993,20,9,12,16,51,9,17,37,4,0.5,30,4.5,6,Lc,0.21649019607843137,0.2914444444444444,0.2834705882352941,0.2604864864864864,0.5,1,15,30,3,2
1,6,11,1,10,7.502999999999994,17,31,96,93,90,14,10.247999999999992,10.064999999999992,3.2329999999999974,3.903999999999997,20,18,11,13,47,38,17,19,3,0.5,24,3.75,6,Lc,0.21804255319148935,0.26486842105263153,0.19017647058823528,0.2054736842105263,0.5,1,15,30,3,2
1,6,12,1,9,8.295999999999994,19,49,71,2,7,6,28.05999999999998,1.8299999999999987,7.380999999999994,8.295999999999994,20,8,15,16,140,9,32,41,4,0.5,40,5.5,6,Lc,0.20042857142857143,0.20333333333333334,0.23065624999999995,0.20234146341463413,0.5,1,15,30,3,2
1,7,13,1,10,9.942999999999993,19,44,85,91,28,29,21.044999999999984,0.183,4.818999999999996,4.208999999999997,20,1,12,11,96,1,15,18,3,0,16,4,6,Lc,0.21921875,0.183,0.32126666666666664,0.2338333333333333,0.5,1,15,30,3,2
1,7,14,1,5,7.380999999999994,19,32,44,37,39,40,7.746999999999994,6.770999999999995,1.0979999999999994,11.040999999999991,20,15,9,15,34,39,9,43,5,1,60,5,6,Lc,0.22785294117647056,0.17361538461538462,0.122,0.2567674418604651,0.5,1,15,30,3,2
1,8,15,1,5,4.6969999999999965,14,34,89,43,93,96,16.10399999999999,0.7929999999999997,1.0979999999999994,5.611999999999996,20,3,5,12,85,5,5,19,5,0.5,23,3.5,6,Lc,0.18945882352941176,0.1586,0.2196,0.29536842105263156,0.5,1,15,30,3,2
1,8,16,1,1,8.722999999999994,17,45,74,50,22,78,8.783999999999994,14.822999999999988,0.9759999999999995,2.8669999999999978,18,17,3,7,46,61,4,10,3,0,16,4,6,Lc,0.19095652173913044,0.24299999999999997,0.244,0.28669999999999995,0.5,1,15,30,3,2
1,9,17,1,9,7.563999999999994,20,41,62,87,63,86,23.48499999999998,1.2809999999999993,0.5489999999999999,1.4029999999999991,20,5,1,5,103,6,1,5,4,0,14,3.5,6,Lc,0.22800970873786405,0.2135,0.5489999999999999,0.2805999999999999,0.5,1,15,30,3,2
1,9,18,1,3,10.674999999999992,19,53,30,51,55,104,15.31099999999999,19.702999999999985,1.4029999999999991,4.391999999999997,20,18,7,11,72,70,10,19,5,0,15,3.75,6,Lc,0.21265277777777777,0.28147142857142854,0.1403,0.2311578947368421,0.5,1,15,30,3,2
1,10,19,1,3,7.380999999999994,18,38,31,35,119,86,10.979999999999992,0.488,3.842999999999997,0.244,20,3,10,1,60,3,13,1,5,0,15,3.75,6,Lc,0.183,0.16266666666666665,0.29561538461538456,0.244,0.5,1,15,30,3,2
1,10,20,1,5,5.367999999999996,16,31,43,7,80,42,9.576999999999993,7.197999999999994,1.8909999999999987,0.061,20,14,7,1,48,30,9,1,5,0,19,4.75,6,Lc,0.19952083333333331,0.2399333333333333,0.21011111111111108,0.061,0.5,1,15,30,3,2
1,11,21,1,5,11.467999999999991,20,56,87,42,91,13,16.04299999999999,2.0739999999999985,1.0979999999999994,3.537999999999997,20,9,4,7,76,15,5,10,5,0,17,4.25,6,Lc,0.2110921052631579,0.13826666666666668,0.2196,0.3537999999999999,0.5,1,15,30,3,2
1,11,22,1,3,7.441999999999994,16,38,35,32,7,68,14.029999999999989,12.32199999999999,14.090999999999989,4.879999999999996,20,18,18,12,69,61,47,18,5,0,20,5,6,Lc,0.20333333333333334,0.20199999999999999,0.29980851063829783,0.2711111111111111,0.5,1,15,30,3,2
1,12,23,1,8,5.7949999999999955,15,27,120,10,6,117,11.223999999999991,21.776999999999983,16.652999999999988,0.244,20,18,16,2,52,91,70,2,2,0,16,4,6,Lc,0.21584615384615383,0.23930769230769228,0.23789999999999997,0.122,0.5,1,15,30,3,2
1,12,24,1,5,14.090999999999989,19,57,38,46,42,20,16.34799999999999,4.025999999999997,0.427,2.805999999999998,20,11,4,10,68,21,5,13,5,0.5,36,5.25,6,Lc,0.24041176470588232,0.1917142857142857,0.0854,0.21584615384615383,0.5,1,15,30,3,2
1,13,25,1,5,10.369999999999992,17,41,23,43,42,38,13.35899999999999,2.622999999999998,2.622999999999998,2.9889999999999977,20,10,10,9,50,12,12,13,5,0.5,36,5.25,6,Lc,0.26718,0.21858333333333332,0.21858333333333332,0.2299230769230769,0.5,1,15,30,3,2
1,13,26,1,8,9.576999999999993,19,47,120,110,113,91,11.650999999999991,0.6709999999999998,0.061,2.683999999999998,20,2,1,6,55,2,1,7,2,0.5,15,2.25,6,Lc,0.21183636363636363,0.3354999999999999,0.061,0.3834285714285714,0.5,1,15,30,3,2
1,14,27,1,9,7.380999999999994,17,40,112,96,64,62,8.783999999999994,1.8299999999999987,4.330999999999997,1.0369999999999995,20,6,12,4,46,11,19,4,4,0,13,3.25,6,Lc,0.1909565217391304,0.16636363636363635,0.22794736842105262,0.25925,0.5,1,15,30,3,2
1,14,28,1,3,7.9299999999999935,18,34,31,15,106,107,9.698999999999993,7.563999999999994,16.835999999999988,16.835999999999988,20,15,16,17,45,35,66,60,5,0,15,3.75,6,Lc,0.21553333333333333,0.2161142857142857,0.25509090909090903,0.28059999999999996,0.5,1,15,30,3,2
1,15,29,1,10,11.77299999999999,19,53,88,120,119,89,15.737999999999987,7.8689999999999936,1.585999999999999,0.6709999999999998,20,17,6,2,74,35,7,2,3,0,10,2.5,6,Lc,0.21267567567567566,0.2248285714285714,0.22657142857142853,0.3354999999999999,0.5,1,15,30,3,2
1,15,30,1,1,7.502999999999994,15,35,82,61,108,104,14.822999999999988,3.1109999999999975,1.7079999999999989,0.061,20,10,7,1,62,17,8,1,3,0,11,2.75,6,Lc,0.2390806451612903,0.183,0.2135,0.061,0.5,1,15,30,3,2
1,16,31,1,7,7.807999999999994,18,34,17,13,106,45,13.907999999999989,13.663999999999989,0.061,0.488,20,17,1,4,68,54,1,4,6,0,19,4.75,6,Lc,0.20452941176470588,0.253037037037037,0.061,0.122,0.5,1,15,30,3,2
1,16,32,1,6,4.269999999999997,13,22,5,86,113,112,17.445999999999987,0.183,1.4029999999999991,0.7319999999999998,20,1,4,3,85,1,5,4,6,0,13,3.25,6,Lc,0.2052470588235294,0.183,0.2806,0.183,0.5,1,15,30,3,2
1,17,33,1,3,10.979999999999992,20,54,31,28,93,90,12.74899999999999,3.842999999999997,0.9149999999999996,2.622999999999998,20,10,4,7,61,17,6,10,5,0,16,4,6,Lc,0.209,0.22605882352941176,0.1525,0.2623,0.5,1,15,30,3,2
1,17,34,1,2,12.62699999999999,19,50,59,55,51,38,16.530999999999988,0.183,4.269999999999997,0.9759999999999995,20,2,11,6,66,2,23,6,4,0.5,29,4.25,6,Lc,0.25046969696969695,0.0915,0.18565217391304348,0.16266666666666665,0.5,1,15,30,3,2
1,1,1,0,9,12.44399999999999,20,60,6,1,67,68,25.74199999999998,11.650999999999991,0.183,0.061,20,16,1,1,118,43,1,1,4,0,20,5,6,Lc,0.21815254237288134,0.270953488372093,0.183,0.061,0.5,1,15,30,3,3
1,1,2,0,4,12.93199999999999,19,57,106,59,19,17,24.21699999999998,1.524999999999999,2.0129999999999986,2.3789999999999982,20,4,8,8,99,4,8,10,2,0,18,4.5,6,Lc,0.2446161616161616,0.3812499999999999,0.251625,0.23789999999999994,0.5,1,15,30,3,3
1,2,3,0,9,15.615999999999987,20,77,92,71,61,18,23.118999999999982,0.122,5.184999999999996,0.305,20,2,9,1,116,2,15,1,4,0,17,4.25,6,Lc,0.199301724137931,0.061,0.3456666666666666,0.305,0.5,1,15,30,3,3
1,2,4,0,6,5.489999999999996,14,20,1,9,8,5,22.325999999999983,0.061,1.524999999999999,18.909999999999986,20,1,5,17,106,1,6,80,6,1,72,6,6,Lc,0.21062264150943394,0.061,0.2541666666666666,0.23637499999999997,0.5,1,15,30,3,3
1,3,5,0,5,10.003999999999992,20,51,15,47,48,41,13.17599999999999,1.9519999999999986,1.7689999999999988,11.77299999999999,20,6,6,15,65,7,6,33,5,0.5,36,5.25,6,Lc,0.20270769230769228,0.27885714285714286,0.29483333333333334,0.3567575757575757,0.5,1,15,30,3,3
1,3,6,0,8,9.149999999999993,17,35,120,119,55,118,13.480999999999991,0.061,9.698999999999993,1.2199999999999993,20,1,16,6,50,1,29,6,2,0.5,16,2.5,6,Lc,0.26961999999999997,0.061,0.3344482758620689,0.20333333333333334,0.5,1,15,30,3,3
1,4,7,0,8,11.71199999999999,18,54,119,111,115,118,17.933999999999987,3.9649999999999967,1.7689999999999988,0.122,20,12,7,1,78,17,8,1,2,1,24,2,6,Lc,0.2299230769230769,0.23323529411764704,0.221125,0.122,0.5,1,15,30,3,3
1,4,8,0,5,10.918999999999992,16,47,39,40,88,13,14.517999999999988,5.306999999999996,0.183,1.524999999999999,20,11,2,7,61,24,2,9,5,0,19,4.75,6,Lc,0.238,0.221125,0.0915,0.16944444444444443,0.5,1,15,30,3,3
1,5,9,0,8,5.7949999999999955,15,32,117,49,35,93,10.918999999999992,3.476999999999997,0.6099999999999999,4.940999999999996,20,8,1,13,52,9,1,19,2,0,14,3.5,6,Lc,0.20998076923076922,0.38633333333333325,0.6099999999999999,0.26005263157894737,0.5,1,15,30,3,3
1,5,10,0,1,9.393999999999993,17,50,77,80,63,76,11.040999999999991,1.2809999999999993,6.8319999999999945,0.5489999999999999,20,5,13,4,61,5,20,4,3,0.5,22,3.25,6,Lc,0.181,0.2562,0.34159999999999996,0.13724999999999998,0.5,1,15,30,3,3
1,6,11,1,9,5.245999999999996,15,27,61,72,64,65,12.07799999999999,2.9279999999999977,3.0499999999999976,0.427,20,9,7,2,57,11,10,2,4,1,48,4,6,Lc,0.21189473684210525,0.26618181818181813,0.305,0.2135,0.5,1,15,30,3,3
1,6,12,1,1,10.613999999999992,18,63,29,81,80,78,16.40899999999999,3.1719999999999975,4.208999999999997,0.6709999999999998,20,12,14,2,79,16,20,2,3,0.5,23,3.5,6,Lc,0.20770886075949369,0.19824999999999998,0.21045,0.3354999999999999,0.5,1,15,30,3,3
1,7,13,1,4,9.332999999999993,17,44,99,108,95,91,11.162999999999991,1.4029999999999991,4.635999999999997,5.489999999999996,20,7,11,11,53,9,16,16,2,0,10,2.5,6,Lc,0.21062264150943394,0.15588888888888888,0.28974999999999995,0.3431249999999999,0.5,1,15,30,3,3
1,7,14,1,8,7.746999999999994,15,33,119,120,111,13,17.323999999999987,1.7689999999999988,4.818999999999996,0.488,20,6,14,3,72,8,20,3,2,0.5,18,3,6,Lc,0.24061111111111108,0.22112499999999996,0.24095,0.16266666666666665,0.5,1,15,30,3,3
1,8,15,1,7,7.563999999999994,19,40,23,22,19,17,7.9299999999999935,13.05399999999999,0.305,2.744999999999998,20,17,2,7,42,42,2,10,6,1,72,6,6,Lc,0.1888095238095238,0.31080952380952376,0.1525,0.27449999999999997,0.5,1,15,30,3,3
1,8,16,1,6,5.7339999999999955,13,24,1,10,4,33,16.22599999999999,0.244,2.805999999999998,1.3419999999999992,20,3,7,1,63,3,11,1,6,0.5,41,5.75,6,Lc,0.25755555555555554,0.08133333333333333,0.2550909090909091,1.3419999999999992,0.5,1,15,30,3,3
1,9,17,1,1,9.698999999999993,17,42,79,75,82,100,13.29799999999999,10.491999999999992,5.245999999999996,4.025999999999997,20,18,14,11,57,42,27,19,3,0.5,20,2.75,6,Lc,0.23329824561403506,0.2498095238095238,0.19429629629629627,0.21189473684210525,0.5,1,15,30,3,3
1,9,18,1,3,6.404999999999995,16,33,32,119,3,93,13.17599999999999,57.339999999999954,5.977999999999995,0.061,20,19,15,1,64,257,30,1,5,0,16,4,6,Lc,0.205875,0.22311284046692606,0.19926666666666668,0.061,0.5,1,15,30,3,3
1,10,19,1,9,10.857999999999992,16,57,69,67,21,99,12.68799999999999,12.13899999999999,31.109999999999975,6.587999999999995,20,18,18,13,68,52,116,27,4,0,16,4,6,Lc,0.18658823529411764,0.23344230769230767,0.2681896551724138,0.244,0.5,1,15,30,3,3
1,10,20,1,6,8.966999999999993,19,55,10,9,5,8,17.323999999999987,0.061,4.208999999999997,6.343999999999995,20,1,11,14,92,1,16,33,6,1,72,6,6,Lc,0.18830434782608693,0.061,0.2630625,0.19224242424242421,0.5,1,15,30,3,3
1,11,21,1,1,6.8929999999999945,16,34,78,73,84,101,9.027999999999993,0.5489999999999999,2.8669999999999978,10.064999999999992,20,4,10,16,40,5,15,46,3,0.5,20,2.75,6,Lc,0.22569999999999998,0.1098,0.19113333333333332,0.21880434782608693,0.5,1,15,30,3,3
1,11,22,1,2,5.611999999999996,16,31,52,49,88,55,8.783999999999994,8.051999999999994,6.160999999999995,2.805999999999998,20,16,13,11,44,32,19,14,4,0.5,27,3.75,6,Lc,0.19963636363636364,0.251625,0.32426315789473675,0.20042857142857143,0.5,1,15,30,3,3
1,12,23,1,4,4.6969999999999965,15,23,15,46,87,94,104.5540000000041,0.7929999999999997,0.061,0.122,20,4,1,2,430,5,1,2,2,0,17,4.25,6,Lc,0.2431488372093023,0.1586,0.061,0.061,0.5,1,15,30,3,3
1,12,24,1,8,7.380999999999994,19,43,115,113,118,117,8.051999999999994,6.343999999999995,0.061,10.857999999999992,20,15,1,16,46,25,1,44,2,1,24,2,6,Lc,0.17504347826086958,0.25376,0.061,0.24677272727272725,0.5,1,15,30,3,3
1,13,25,1,3,9.515999999999993,17,44,31,33,29,19,28.60899999999998,4.330999999999997,1.3419999999999992,0.366,20,13,4,4,124,19,4,4,5,0.5,36,5.25,6,Lc,0.23071774193548386,0.22794736842105262,0.33549999999999996,0.0915,0.5,1,15,30,3,3
1,13,26,1,9,11.71199999999999,18,58,72,98,62,47,17.994999999999987,20.556999999999984,1.463999999999999,1.7689999999999988,20,19,6,7,85,75,8,8,4,0,15,3.75,6,Lc,0.21170588235294116,0.2740933333333333,0.183,0.221125,0.5,1,15,30,3,3
1,14,27,1,4,6.770999999999995,18,42,30,103,108,105,24.33899999999998,0.244,1.463999999999999,0.305,20,2,9,2,110,2,11,2,2,0.5,17,2.75,6,Lc,0.22126363636363633,0.122,0.1330909090909091,0.1525,0.5,1,15,30,3,3
1,14,28,1,10,7.807999999999994,16,41,88,64,90,94,10.125999999999992,3.720999999999997,2.0129999999999986,0.183,20,9,8,2,49,14,9,2,3,0.5,22,3.25,6,Lc,0.2066530612244898,0.26578571428571424,0.22366666666666662,0.0915,0.5,1,15,30,3,3
1,15,29,1,6,2.622999999999998,10,14,1,2,11,9,5.977999999999995,0.7319999999999998,0.183,4.940999999999996,20,3,2,11,32,3,2,20,6,1,72,6,6,Lc,0.1868125,0.244,0.0915,0.24704999999999996,0.5,1,15,30,3,3
1,15,30,1,1,13.968999999999989,19,62,81,73,98,30,16.16499999999999,5.367999999999996,4.513999999999997,2.622999999999998,20,13,12,12,70,33,21,14,3,0,13,3.25,6,Lc,0.2309285714285714,0.16266666666666665,0.21495238095238095,0.18735714285714286,0.5,1,15,30,3,3
1,16,31,1,6,8.173999999999994,18,32,10,5,2,9,18.360999999999986,6.221999999999995,1.585999999999999,3.476999999999997,20,13,8,12,80,22,9,15,6,1,72,6,6,Lc,0.22951249999999998,0.2828181818181818,0.17622222222222222,0.23179999999999998,0.5,1,15,30,3,3
1,16,32,1,5,9.393999999999993,19,35,44,39,47,89,11.95599999999999,2.8669999999999978,3.1719999999999975,0.122,20,11,9,1,45,14,11,1,5,0.5,33,4.5,6,Lc,0.26568888888888886,0.20478571428571427,0.2883636363636364,0.122,0.5,1,15,30,3,3
1,17,33,1,8,7.075999999999994,15,36,114,116,119,66,9.637999999999993,4.574999999999997,4.330999999999997,1.4029999999999991,20,10,11,3,46,20,21,3,2,0.5,16,2.5,6,Lc,0.20952173913043476,0.22874999999999998,0.20623809523809522,0.46766666666666645,0.5,1,15,30,3,3
1,17,34,1,5,8.966999999999993,14,43,37,38,39,98,12.56599999999999,1.7079999999999989,0.366,4.940999999999996,20,3,2,13,62,4,3,25,5,0.5,32,4.25,6,Lc,0.20267741935483868,0.427,0.122,0.19763999999999998,0.5,1,15,30,3,3
1,1,1,0,6,8.783999999999994,19,41,2,12,5,9,18.055999999999987,0.183,5.123999999999996,1.2199999999999993,20,1,13,5,69,1,16,5,6,1,72,6,6,Lc,0.2616811594202898,0.183,0.3202499999999999,0.244,0.5,1,15,30,3,4
1,1,2,0,5,7.990999999999993,14,35,46,43,16,15,17.872999999999987,2.8669999999999978,5.611999999999996,4.269999999999997,20,11,17,14,74,14,28,20,5,0,22,5.5,6,Lc,0.241527027027027,0.20478571428571427,0.20042857142857143,0.21349999999999997,0.5,1,15,30,3,4
1,2,3,0,9,11.284999999999991,17,50,67,61,100,89,19.275999999999986,1.2809999999999993,6.770999999999995,2.1959999999999984,20,5,16,8,77,6,30,8,4,0,13,3.25,6,Lc,0.2503376623376623,0.2135,0.22569999999999996,0.27449999999999997,0.5,1,15,30,3,4
1,2,4,0,2,10.613999999999992,18,49,54,60,56,48,24.09499999999998,0.7929999999999997,1.646999999999999,2.683999999999998,20,5,8,6,99,5,8,8,4,0.5,29,4.25,6,Lc,0.24338383838383834,0.1586,0.205875,0.3354999999999999,0.5,1,15,30,3,4
1,3,5,0,9,10.308999999999992,17,44,78,62,64,69,18.116999999999987,2.1349999999999985,0.061,1.646999999999999,20,8,1,7,66,8,1,9,4,0.5,27,3.75,6,Lc,0.27449999999999997,0.266875,0.061,0.183,0.5,1,15,30,3,4
1,3,6,0,5,8.661999999999994,17,37,42,114,51,47,29.95099999999998,0.488,0.488,0.061,20,3,3,1,117,3,4,1,5,0,16,4,6,Lc,0.255991452991453,0.16266666666666665,0.122,0.061,0.5,1,15,30,3,4
1,4,7,0,3,7.502999999999994,18,37,76,113,116,119,20.312999999999985,0.5489999999999999,4.086999999999997,2.2569999999999983,20,3,14,6,93,4,16,6,5,0.5,15,2.25,6,Lc,0.21841935483870967,0.13724999999999998,0.2554375,0.3761666666666666,0.5,1,15,30,3,4
1,4,8,0,9,9.515999999999993,20,50,67,39,71,93,10.247999999999992,16.16499999999999,1.0369999999999995,0.9759999999999995,20,19,4,6,54,68,4,6,4,0,16,4,6,Lc,0.18977777777777777,0.2377205882352941,0.25924999999999987,0.16266666666666665,0.5,1,15,30,3,4
1,5,9,0,7,8.173999999999994,18,42,13,94,100,22,23.057999999999982,1.0979999999999994,0.7319999999999998,0.122,20,4,1,2,97,4,1,2,6,0,17,4.25,6,Lc,0.23771134020618553,0.27449999999999997,0.7319999999999998,0.061,0.5,1,15,30,3,4
1,5,10,0,2,11.406999999999991,18,63,60,77,50,54,13.11499999999999,6.404999999999995,6.465999999999995,0.244,20,13,16,1,73,26,32,1,4,0.5,27,3.75,6,Lc,0.17965753424657532,0.24634615384615383,0.20206249999999998,0.244,0.5,1,15,30,3,4
1,6,11,1,2,10.247999999999992,18,47,50,97,14,88,13.29799999999999,25.37599999999998,2.3789999999999982,0.7929999999999997,20,19,5,4,63,92,11,4,4,0,15,3.75,6,Lc,0.21107936507936506,0.2758260869565217,0.21627272727272726,0.19824999999999998,0.5,1,15,30,3,4
1,6,12,1,6,8.112999999999994,17,44,11,4,8,79,10.247999999999992,6.526999999999995,4.879999999999996,2.744999999999998,20,15,12,7,53,28,19,11,6,0.5,39,5.25,6,Lc,0.19335849056603774,0.23310714285714285,0.2568421052631578,0.24954545454545454,0.5,1,15,30,3,4
1,7,13,1,7,11.83399999999999,16,42,13,18,14,58,19.092999999999986,0.061,0.183,2.0739999999999985,20,1,2,8,64,1,2,8,6,0.5,40,5.5,6,Lc,0.29832812499999994,0.061,0.0915,0.25925,0.5,1,15,30,3,4
1,7,14,1,3,7.624999999999994,17,46,28,33,34,83,13.17599999999999,0.244,10.491999999999992,2.1959999999999984,20,1,18,5,65,1,45,10,5,0.5,33,4.5,6,Lc,0.20270769230769228,0.244,0.23315555555555556,0.21959999999999996,0.5,1,15,30,3,4
1,8,15,1,10,7.990999999999993,16,37,95,94,15,92,15.371999999999987,4.452999999999997,3.598999999999997,4.635999999999997,20,10,9,13,66,12,13,21,3,0.5,24,3.75,6,Lc,0.23290909090909087,0.3710833333333332,0.2768461538461538,0.22076190476190474,0.5,1,15,30,3,4
1,8,16,1,6,9.393999999999993,19,42,10,5,51,3,18.116999999999987,0.305,5.550999999999996,25.68099999999998,20,2,12,17,77,2,21,116,6,0.5,40,5.5,6,Lc,0.23528571428571426,0.1525,0.2643333333333333,0.22138793103448273,0.5,1,15,30,3,4
1,9,17,1,2,10.430999999999992,17,45,56,54,105,103,13.11499999999999,4.635999999999997,7.746999999999994,1.7689999999999988,20,15,15,4,55,19,32,5,4,0,12,3,6,Lc,0.23845454545454545,0.24399999999999997,0.24209375,0.35379999999999995,0.5,1,15,30,3,4
1,9,18,1,8,5.062999999999996,16,30,2,69,48,45,155.42800000000992,0.061,0.244,0.305,20,1,2,3,632,1,2,4,2,0,20,5,6,Lc,0.24593037974683546,0.061,0.122,0.07625,0.5,1,15,30,3,4
1,10,19,1,2,8.783999999999994,18,39,57,52,49,37,15.798999999999989,0.305,6.099999999999995,10.369999999999992,20,3,11,15,76,3,26,44,4,0.5,29,4.25,6,Lc,0.20788157894736842,0.10166666666666667,0.2346153846153846,0.23568181818181816,0.5,1,15,30,3,4
1,10,20,1,3,10.125999999999992,19,45,31,25,15,66,13.968999999999989,9.149999999999993,3.2329999999999974,4.513999999999997,20,18,8,12,66,46,14,22,5,0,20,5,6,Lc,0.21165151515151515,0.19891304347826086,0.2309285714285714,0.2051818181818182,0.5,1,15,30,3,4
1,11,21,1,8,10.064999999999992,16,40,119,111,91,36,11.162999999999991,4.452999999999997,14.273999999999988,2.0129999999999986,20,10,18,8,46,15,61,12,2,0,12,3,6,Lc,0.24267391304347824,0.2968666666666666,0.23399999999999999,0.16774999999999998,0.5,1,15,30,3,4
1,11,22,1,5,9.088999999999993,19,40,39,46,21,13,10.735999999999992,1.646999999999999,10.613999999999992,0.5489999999999999,20,9,16,2,50,9,46,4,5,0,22,5.5,6,Lc,0.21472,0.183,0.23073913043478259,0.13724999999999998,0.5,1,15,30,3,4
1,12,23,1,7,10.857999999999992,18,45,22,24,20,21,12.01699999999999,4.7579999999999965,9.149999999999993,10.125999999999992,20,14,14,15,49,20,32,43,6,1,72,6,6,Lc,0.24524489795918364,0.23789999999999994,0.28593749999999996,0.23548837209302323,0.5,1,15,30,3,4
1,12,24,1,6,7.990999999999993,18,35,12,3,2,8,11.89499999999999,12.01699999999999,0.183,0.9149999999999996,20,17,2,4,50,44,2,4,6,1,72,6,6,Lc,0.23789999999999997,0.27311363636363634,0.0915,0.22875,0.5,1,15,30,3,4
1,13,25,1,2,10.735999999999992,20,67,15,50,19,40,40.38199999999997,0.061,0.7319999999999998,0.061,20,1,2,1,205,1,2,1,4,0,21,5.25,6,Lc,0.19698536585365853,0.061,0.366,0.061,0.5,1,15,30,3,4
1,13,26,1,8,9.942999999999993,18,52,120,110,65,119,20.190999999999985,2.561999999999998,21.288999999999984,0.9759999999999995,20,9,18,4,97,13,91,5,2,0.5,16,2.5,6,Lc,0.20815463917525773,0.19707692307692304,0.2339450549450549,0.19519999999999998,0.5,1,15,30,3,4
1,14,27,1,2,9.332999999999993,19,44,54,53,46,38,10.003999999999992,2.9889999999999977,9.393999999999993,3.2939999999999974,20,11,17,13,48,16,44,19,4,0,18,4.5,6,Lc,0.20841666666666664,0.1868125,0.21349999999999997,0.1733684210526316,0.5,1,15,30,3,4
1,14,28,1,1,9.088999999999993,20,49,76,16,79,18,16.28699999999999,4.879999999999996,0.183,4.6969999999999965,20,13,3,10,78,20,3,20,3,0,18,4.5,6,Lc,0.2088076923076923,0.24399999999999997,0.061,0.23485,0.5,1,15,30,3,4
1,15,29,1,6,6.221999999999995,15,33,11,2,6,12,6.404999999999995,8.356999999999994,0.9149999999999996,5.7949999999999955,16,16,7,13,34,35,8,25,6,1,72,6,6,Lc,0.18838235294117647,0.23877142857142855,0.11437499999999999,0.23179999999999998,0.5,1,15,30,3,4
1,15,30,1,10,6.526999999999995,17,35,14,92,101,95,44.712999999999965,7.502999999999994,0.183,0.061,20,16,2,1,197,31,2,1,3,0,14,3.5,6,Lc,0.2269695431472081,0.24203225806451611,0.0915,0.061,0.5,1,15,30,3,4
1,16,31,1,10,9.454999999999993,18,46,92,16,96,14,14.51799999999999,2.3179999999999983,11.040999999999991,29.157999999999976,20,7,18,17,61,7,52,124,3,0,18,4.5,6,Lc,0.238,0.33114285714285713,0.21232692307692308,0.23514516129032256,0.5,1,15,30,3,4
1,16,32,1,1,5.916999999999995,16,28,1,119,10,30,78.995000000001,0.305,0.488,0.061,20,3,3,1,329,3,3,1,3,0,19,4.75,6,Lc,0.2401063829787234,0.10166666666666667,0.16266666666666665,0.061,0.5,1,15,30,3,4
1,1,1,0,9,9.942999999999993,18,46,71,62,65,63,19.458999999999985,1.8299999999999987,0.7319999999999998,1.524999999999999,20,8,4,5,85,11,4,7,4,1,48,4,6,Lc,0.22892941176470585,0.16636363636363635,0.183,0.21785714285714286,0.5,1,15,30,3,5
1,1,2,0,1,9.942999999999993,13,41,77,84,75,23,14.57899999999999,0.305,2.1349999999999985,4.452999999999997,20,2,6,12,60,2,10,25,3,0.5,24,3.75,6,Lc,0.2429833333333333,0.1525,0.2135,0.17812,0.5,1,15,30,3,5
1,2,3,0,10,13.41999999999999,18,64,94,52,22,90,15.981999999999987,11.528999999999991,4.147999999999997,1.0369999999999995,20,17,10,6,71,50,15,6,3,0,16,4,6,Lc,0.22509859154929576,0.23057999999999998,0.2765333333333333,0.17283333333333334,0.5,1,15,30,3,5
1,2,4,0,5,12.38299999999999,19,60,103,37,45,108,26.47399999999998,0.427,3.3549999999999973,8.478999999999994,20,4,11,15,116,4,16,37,5,0,14,3.5,6,Lc,0.22822413793103447,0.10675,0.20968749999999997,0.22916216216216215,0.5,1,15,30,3,5
1,3,5,0,4,7.502999999999994,18,36,13,79,108,80,24.88799999999998,13.29799999999999,0.061,0.6099999999999999,20,19,1,3,103,63,1,3,2,0,14,3.5,6,Lc,0.241631067961165,0.21107936507936506,0.061,0.20333333333333334,0.5,1,15,30,3,5
1,3,6,0,9,9.332999999999993,17,45,72,68,70,66,13.480999999999991,0.7319999999999998,4.208999999999997,0.305,20,2,11,2,61,2,16,2,4,1,48,4,6,Lc,0.22099999999999997,0.366,0.2630625,0.1525,0.5,1,15,30,3,5
1,4,7,0,3,6.282999999999995,16,30,32,107,94,104,16.04299999999999,5.672999999999996,0.244,2.0129999999999986,20,11,2,6,78,25,2,9,5,0,12,3,6,Lc,0.20567948717948717,0.22691999999999998,0.122,0.22366666666666665,0.5,1,15,30,3,5
1,4,8,0,2,8.722999999999994,15,34,51,43,79,55,11.406999999999991,12.01699999999999,0.8539999999999996,1.646999999999999,20,16,2,5,42,48,3,5,4,0,16,4,6,Lc,0.27159523809523806,0.25035416666666666,0.2846666666666666,0.32939999999999997,0.5,1,15,30,3,5
1,5,9,0,7,7.136999999999994,18,33,22,106,13,18,8.417999999999994,11.77299999999999,0.427,0.061,20,18,2,1,38,52,2,1,6,0.5,38,5,6,Lc,0.22152631578947368,0.22640384615384612,0.2135,0.061,0.5,1,15,30,3,5
1,5,10,0,8,9.698999999999993,17,54,111,74,82,73,18.055999999999987,0.5489999999999999,5.611999999999996,3.4159999999999973,20,2,15,10,83,2,29,20,2,0.5,20,2.75,6,Lc,0.21754216867469878,0.27449999999999997,0.19351724137931034,0.1708,0.5,1,15,30,3,5
1,6,11,1,2,11.406999999999991,20,52,86,57,96,40,26.77899999999998,5.855999999999995,1.2809999999999993,1.463999999999999,20,13,4,3,105,29,5,3,4,0,15,3.75,6,Lc,0.2550380952380952,0.2019310344827586,0.2562,0.4879999999999999,0.5,1,15,30,3,5
1,6,12,1,3,9.759999999999993,19,46,30,25,81,31,12.44399999999999,4.147999999999997,1.585999999999999,3.3549999999999973,20,13,7,10,56,21,11,14,5,0.5,33,4.5,6,Lc,0.2222142857142857,0.19752380952380952,0.1441818181818182,0.23964285714285713,0.5,1,15,30,3,5
1,7,13,1,4,10.918999999999992,17,44,103,99,80,105,14.761999999999988,1.463999999999999,0.183,6.282999999999995,20,4,2,13,58,5,2,20,2,0.5,15,2.25,6,Lc,0.2545172413793103,0.2928,0.0915,0.31415,0.5,1,15,30,3,5
1,7,14,1,9,10.186999999999992,17,41,64,38,1,4,15.676999999999989,12.93199999999999,10.430999999999992,19.214999999999986,20,18,16,17,60,53,43,73,4,0,21,5.25,6,Lc,0.2612833333333333,0.24399999999999997,0.2425813953488372,0.26321917808219175,0.5,1,15,30,3,5
1,8,15,1,10,9.454999999999993,15,46,92,93,118,31,21.532999999999983,0.366,8.722999999999994,0.6709999999999998,20,5,16,2,80,5,30,3,3,0,13,3.25,6,Lc,0.26916249999999997,0.0732,0.2907666666666666,0.22366666666666665,0.5,1,15,30,3,5
1,8,16,1,9,10.735999999999992,18,41,2,1,101,78,17.628999999999987,0.366,20.129999999999985,0.488,20,1,18,5,71,1,92,5,4,0,17,4.25,6,Lc,0.24829577464788732,0.366,0.21880434782608693,0.09759999999999999,0.5,1,15,30,3,5
1,9,17,1,9,10.064999999999992,19,48,68,25,62,32,15.37199999999999,2.0129999999999986,2.0129999999999986,2.9889999999999977,20,4,7,12,64,5,8,17,4,0,18,4.5,6,Lc,0.24018749999999997,0.4025999999999999,0.251625,0.1758235294117647,0.5,1,15,30,3,5
1,9,18,1,5,11.71199999999999,20,55,47,48,110,3,17.018999999999988,0.9149999999999996,5.489999999999996,5.184999999999996,20,4,15,14,81,4,28,33,5,0,18,4.5,6,Lc,0.21011111111111108,0.22874999999999995,0.19607142857142856,0.1571212121212121,0.5,1,15,30,3,5
1,10,19,1,7,6.160999999999995,15,29,14,22,23,112,12.32199999999999,3.1719999999999975,16.10399999999999,0.183,20,13,18,1,64,15,72,1,6,0.5,38,5,6,Lc,0.19253125,0.21146666666666664,0.22366666666666665,0.183,0.5,1,15,30,3,5
1,10,20,1,6,11.77299999999999,19,54,86,47,45,10,20.800999999999984,1.524999999999999,3.903999999999997,0.122,20,5,13,1,92,7,16,1,6,0,19,4.75,6,Lc,0.2260978260869565,0.21785714285714286,0.244,0.122,0.5,1,15,30,3,5
1,11,21,1,3,7.685999999999994,15,30,74,51,83,59,24.94899999999998,1.7689999999999988,2.2569999999999983,1.0369999999999995,20,5,6,5,107,9,7,5,5,0,14,3.5,6,Lc,0.2331682242990654,0.19655555555555554,0.3224285714285714,0.2074,0.5,1,15,30,3,5
1,11,22,1,5,8.478999999999994,16,39,47,61,46,90,12.931999999999992,19.641999999999985,0.9149999999999996,0.061,20,19,4,1,55,76,4,1,5,0,17,4.25,6,Lc,0.2351272727272727,0.2584473684210526,0.22875,0.061,0.5,1,15,30,3,5
1,12,23,1,6,9.820999999999993,17,39,90,3,12,39,23.057999999999982,0.122,1.463999999999999,0.122,20,1,3,1,88,1,4,1,6,0,20,5,6,Lc,0.26202272727272724,0.122,0.366,0.122,0.5,1,15,30,3,5
1,12,24,1,7,9.088999999999993,16,36,19,83,20,16,10.064999999999992,2.683999999999998,0.427,4.879999999999996,20,10,3,11,42,11,3,16,6,0.5,39,5.25,6,Lc,0.2396428571428571,0.24399999999999997,0.14233333333333334,0.305,0.5,1,15,30,3,5
1,13,25,1,6,11.528999999999991,19,54,71,115,85,10,14.944999999999988,2.561999999999998,4.391999999999997,3.842999999999997,20,8,12,9,64,11,16,13,6,0,15,3.75,6,Lc,0.23351562499999998,0.2329090909090909,0.27449999999999997,0.29561538461538456,0.5,1,15,30,3,5
1,13,26,1,3,7.990999999999993,14,28,30,78,81,76,13.785999999999989,0.9149999999999996,0.9759999999999995,0.183,20,2,3,3,57,3,5,3,5,0.5,23,3.5,6,Lc,0.241859649122807,0.305,0.19519999999999998,0.061,0.5,1,15,30,3,5
1,14,27,1,3,7.563999999999994,18,36,118,3,36,59,17.689999999999987,14.883999999999988,0.183,0.183,20,18,2,2,76,60,2,2,5,0,17,4.25,6,Lc,0.23276315789473684,0.24806666666666663,0.0915,0.0915,0.5,1,15,30,3,5
1,14,28,1,5,10.430999999999992,18,45,43,46,65,61,10.491999999999992,6.038999999999995,2.0739999999999985,1.1589999999999994,19,16,8,4,46,30,10,5,5,0,18,4.5,6,Lc,0.22808695652173913,0.2013,0.2074,0.2318,0.5,1,15,30,3,5
1,15,29,1,4,13.17599999999999,18,65,35,56,33,96,20.678999999999984,1.8299999999999987,1.8299999999999987,4.879999999999996,20,7,4,15,104,8,5,30,2,0,17,4.25,6,Lc,0.19883653846153845,0.22874999999999998,0.36599999999999994,0.16266666666666665,0.5,1,15,30,3,5
1,15,30,1,6,9.820999999999993,18,42,2,5,77,110,22.996999999999982,8.356999999999994,0.122,0.305,20,16,2,2,107,38,2,2,6,0,17,4.25,6,Lc,0.2149252336448598,0.21992105263157893,0.061,0.1525,0.5,1,15,30,3,5
1,16,31,1,6,12.68799999999999,18,57,5,8,3,6,15.493999999999987,3.1109999999999975,0.122,11.223999999999991,20,9,1,16,69,12,1,44,6,1,72,6,6,Lc,0.22455072463768114,0.25925,0.122,0.25509090909090903,0.5,1,15,30,3,5
1,16,32,1,7,10.735999999999992,17,51,59,17,18,45,12.19999999999999,0.427,2.3179999999999983,2.0739999999999985,20,3,9,7,58,3,11,9,6,0,21,5.25,6,Lc,0.21034482758620687,0.14233333333333334,0.2107272727272727,0.23044444444444442,0.5,1,15,30,3,5
1,17,33,1,5,10.247999999999992,17,53,43,53,45,37,11.284999999999991,7.624999999999994,0.7319999999999998,1.9519999999999986,20,15,5,5,57,33,5,5,5,0.5,34,4.75,6,Lc,0.19798245614035087,0.23106060606060605,0.1464,0.39039999999999997,0.5,1,15,30,3,5
1,17,34,1,3,9.027999999999993,18,43,30,35,120,116,10.308999999999992,5.306999999999996,11.528999999999991,0.6709999999999998,20,15,18,1,49,28,62,1,5,0,14,3.5,6,Lc,0.2103877551020408,0.18953571428571428,0.1859516129032258,0.6709999999999998,0.5,1,15,30,3,5
1,1,1,0,6,7.502999999999994,16,32,2,48,57,3,37.81999999999997,0.122,0.305,0.244,20,1,2,2,146,1,2,2,6,0,21,5.25,6,Lc,0.2590410958904109,0.122,0.1525,0.122,0.5,1,15,30,3,6
1,1,2,0,9,15.249999999999988,20,69,62,71,22,21,19.458999999999985,3.4159999999999973,7.258999999999994,3.1109999999999975,20,11,17,8,89,15,37,9,4,0,20,5,6,Lc,0.21864044943820224,0.22773333333333332,0.19618918918918918,0.3456666666666666,0.5,1,15,30,3,6
1,2,3,0,8,12.93199999999999,20,69,120,114,88,65,20.556999999999984,4.818999999999996,2.683999999999998,2.500999999999998,20,15,5,8,91,27,9,11,2,0,11,2.75,6,Lc,0.22590109890109888,0.17848148148148146,0.29822222222222217,0.22736363636363635,0.5,1,15,30,3,6
1,2,4,0,5,7.990999999999993,17,28,60,6,47,12,17.933999999999987,4.452999999999997,1.1589999999999994,1.585999999999999,20,13,4,3,68,21,4,3,5,0,21,5.25,6,Lc,0.26373529411764707,0.212047619047619,0.28974999999999995,0.5286666666666666,0.5,1,15,30,3,6
1,3,5,0,5,9.332999999999993,18,46,40,9,12,45,17.201999999999988,3.842999999999997,2.683999999999998,0.427,20,11,11,3,73,15,17,3,5,0,22,5.5,6,Lc,0.2356438356164383,0.2562,0.15788235294117647,0.14233333333333334,0.5,1,15,30,3,6
1,3,6,0,10,9.332999999999993,18,50,52,86,105,89,21.898999999999983,2.622999999999998,1.2809999999999993,1.524999999999999,20,9,6,9,103,11,7,10,3,0,12,3,6,Lc,0.21261165048543687,0.23845454545454545,0.183,0.1525,0.5,1,15,30,3,6
1,4,7,0,10,15.615999999999987,18,67,91,9,103,96,20.678999999999984,0.7929999999999997,3.659999999999997,4.025999999999997,20,2,10,10,95,2,12,14,3,0,14,3.5,6,Lc,0.21767368421052632,0.3964999999999999,0.30499999999999994,0.28757142857142853,0.5,1,15,30,3,6
1,4,8,0,8,7.807999999999994,15,32,110,120,60,119,10.979999999999992,2.683999999999998,2.0739999999999985,3.2939999999999974,20,5,8,10,54,9,10,16,2,0.5,16,2.5,6,Lc,0.2033333333333333,0.29822222222222217,0.2074,0.20587499999999997,0.5,1,15,30,3,6
1,5,9,0,1,8.112999999999994,16,42,77,57,41,43,10.552999999999992,5.001999999999996,0.366,6.8929999999999945,20,12,2,12,55,20,2,27,3,0,17,4.25,6,Lc,0.19187272727272728,0.2501,0.183,0.25529629629629624,0.5,1,15,30,3,6
1,5,10,0,9,14.334999999999988,19,67,97,4,106,70,17.079999999999988,3.0499999999999976,3.903999999999997,0.7929999999999997,20,7,9,3,82,10,16,3,4,0,14,3.5,6,Lc,0.20829268292682926,0.30499999999999994,0.24399999999999997,0.2643333333333333,0.5,1,15,30,3,6
1,6,11,1,5,13.35899999999999,19,55,100,101,102,87,24.33899999999998,0.7929999999999997,10.796999999999992,0.8539999999999996,20,4,17,6,101,4,45,7,5,0.5,15,2.25,6,Lc,0.24098019801980197,0.19824999999999998,0.2399333333333333,0.122,0.5,1,15,30,3,6
1,6,12,1,9,9.332999999999993,17,42,65,71,70,62,11.589999999999991,2.8669999999999978,3.903999999999997,4.513999999999997,20,11,13,12,55,14,20,23,4,1,48,4,6,Lc,0.21072727272727274,0.20478571428571427,0.19519999999999996,0.19626086956521738,0.5,1,15,30,3,6
1,7,13,1,9,13.11499999999999,20,57,67,65,47,63,16.16499999999999,7.014999999999994,0.5489999999999999,0.244,20,15,3,2,75,31,3,2,4,0.5,29,4.25,6,Lc,0.21553333333333333,0.22629032258064513,0.183,0.122,0.5,1,15,30,3,6
1,7,14,1,1,5.611999999999996,15,26,80,76,34,77,8.966999999999993,5.184999999999996,2.0129999999999986,5.062999999999996,20,15,3,14,37,27,5,24,3,0.5,23,3.5,6,Lc,0.24235135135135133,0.192037037037037,0.40259999999999985,0.2109583333333333,0.5,1,15,30,3,6
1,8,15,1,10,6.221999999999995,16,36,93,94,105,72,14.39599999999999,0.061,3.537999999999997,5.916999999999995,20,1,11,9,65,1,17,21,3,0,12,3,6,Lc,0.22147692307692304,0.061,0.20811764705882352,0.2817619047619047,0.5,1,15,30,3,6
1,8,16,1,1,11.467999999999991,19,49,83,81,47,42,14.212999999999989,3.4159999999999973,1.646999999999999,15.127999999999988,20,9,2,16,68,11,2,56,3,0,16,4,6,Lc,0.20901470588235294,0.3105454545454545,0.8234999999999997,0.2701428571428571,0.5,1,15,30,3,6
1,9,17,1,1,4.635999999999997,15,31,74,77,80,120,9.149999999999993,0.488,8.173999999999994,14.273999999999988,20,3,14,17,43,4,24,68,3,0.5,20,2.75,6,Lc,0.21279069767441858,0.122,0.34058333333333324,0.20991176470588235,0.5,1,15,30,3,6
1,9,18,1,3,10.125999999999992,18,51,56,34,52,94,17.994999999999987,1.8299999999999987,3.903999999999997,0.244,20,5,9,3,88,6,14,3,5,0,16,4,6,Lc,0.20448863636363634,0.30499999999999994,0.2788571428571428,0.08133333333333333,0.5,1,15,30,3,6
1,10,19,1,9,5.855999999999995,14,28,68,70,64,107,7.136999999999995,1.646999999999999,2.9279999999999977,6.709999999999995,19,10,9,13,34,13,11,25,4,0.5,26,3.5,6,Lc,0.20991176470588235,0.1266923076923077,0.26618181818181813,0.26839999999999997,0.5,1,15,30,3,6
1,10,20,1,6,11.162999999999991,19,60,5,3,1,118,16.957999999999988,0.305,8.173999999999994,1.8909999999999987,20,2,16,8,93,2,26,10,6,0.5,38,5,6,Lc,0.18234408602150537,0.1525,0.3143846153846153,0.1891,0.5,1,15,30,3,6
1,11,21,1,7,10.064999999999992,19,55,21,18,15,97,11.83399999999999,7.136999999999994,8.539999999999994,4.025999999999997,20,12,17,13,62,22,41,17,6,0.5,38,5,6,Lc,0.1908709677419355,0.32440909090909087,0.20829268292682926,0.23682352941176468,0.5,1,15,30,3,6
1,11,22,1,6,8.478999999999994,18,41,4,6,88,118,30.49999999999998,0.6099999999999999,2.8669999999999978,0.305,20,4,8,3,138,5,10,3,6,0,17,4.25,6,Lc,0.22101449275362317,0.122,0.28669999999999995,0.10166666666666667,0.5,1,15,30,3,6
1,12,23,1,5,9.637999999999993,18,45,61,43,114,42,17.689999999999987,2.1349999999999985,2.1959999999999984,2.561999999999998,20,7,7,9,71,11,8,11,5,0,16,4,6,Lc,0.24915492957746474,0.1940909090909091,0.27449999999999997,0.2329090909090909,0.5,1,15,30,3,6
1,12,24,1,1,13.663999999999989,20,62,74,79,84,19,16.896999999999988,4.452999999999997,0.488,4.269999999999997,20,15,2,11,70,22,3,13,3,0.5,24,3.75,6,Lc,0.24138571428571426,0.2024090909090909,0.16266666666666665,0.3284615384615384,0.5,1,15,30,3,6
1,13,25,1,6,8.234999999999994,18,48,6,1,75,4,9.759999999999993,12.68799999999999,0.244,6.8929999999999945,20,16,2,16,55,51,2,37,6,0.5,39,5.25,6,Lc,0.17745454545454545,0.24878431372549017,0.122,0.1862972972972973,0.5,1,15,30,3,6
1,13,26,1,5,8.844999999999994,19,46,19,113,47,65,14.21299999999999,0.366,2.2569999999999983,0.9759999999999995,20,3,9,4,72,3,11,5,5,0,17,4.25,6,Lc,0.19740277777777776,0.122,0.2051818181818182,0.19519999999999998,0.5,1,15,30,3,6
1,14,27,1,2,10.796999999999992,20,46,58,119,52,111,12.26099999999999,8.844999999999994,0.183,1.2809999999999993,20,17,2,4,55,38,2,6,4,0,12,3,6,Lc,0.2229272727272727,0.2327631578947368,0.0915,0.2135,0.5,1,15,30,3,6
1,14,28,1,6,4.147999999999997,11,13,4,7,64,6,21.715999999999983,1.0369999999999995,0.183,0.183,20,3,1,3,96,3,1,3,6,0.5,40,5.5,6,Lc,0.22620833333333332,0.34566666666666657,0.183,0.061,0.5,1,15,30,3,6
1,15,29,1,10,11.162999999999991,19,54,92,100,15,21,17.567999999999987,2.9889999999999977,2.8669999999999978,1.9519999999999986,20,11,11,8,77,18,13,9,3,0,17,4.25,6,Lc,0.2281558441558441,0.16605555555555554,0.22053846153846152,0.21688888888888888,0.5,1,15,30,3,6
1,15,30,1,1,11.650999999999991,19,54,74,81,63,71,14.944999999999988,6.282999999999995,2.2569999999999983,2.3789999999999982,20,16,11,5,70,27,15,9,3,0,14,3.5,6,Lc,0.2135,0.2327037037037037,0.15046666666666667,0.2643333333333333,0.5,1,15,30,3,6
1,16,31,1,7,12.13899999999999,18,54,73,23,13,97,19.641999999999985,16.896999999999988,4.7579999999999965,1.0369999999999995,20,19,9,5,79,71,18,5,6,0,17,4.25,6,Lc,0.24863291139240504,0.23798591549295772,0.2643333333333333,0.20739999999999997,0.5,1,15,30,3,6
1,16,32,1,2,11.223999999999991,19,57,116,51,54,49,16.40899999999999,4.574999999999997,2.622999999999998,4.330999999999997,20,13,8,11,77,19,11,14,4,0.5,26,3.5,6,Lc,0.2131038961038961,0.24078947368421047,0.23845454545454545,0.30935714285714283,0.5,1,15,30,3,6
1,17,33,1,10,6.160999999999995,14,28,89,91,1,106,8.600999999999994,7.197999999999994,23.85099999999998,0.7929999999999997,19,14,18,5,34,22,100,5,3,0,14,3.5,6,Lc,0.2529705882352941,0.32718181818181813,0.23850999999999994,0.1586,0.5,1,15,30,3,6
1,17,34,1,3,10.857999999999992,19,51,36,72,62,31,20.190999999999985,1.2199999999999993,0.7319999999999998,1.4029999999999991,20,8,4,8,90,8,5,8,5,0,18,4.5,6,Lc,0.22434444444444443,0.1525,0.1464,0.175375,0.5,1,15,30,3,6
1,1,1,0,7,11.83399999999999,19,59,21,16,77,13,18.909999999999986,4.7579999999999965,8.844999999999994,12.26099999999999,20,13,15,16,90,22,37,53,6,0.5,39,5.25,6,Lc,0.21011111111111108,0.21627272727272726,0.23905405405405403,0.23133962264150942,0.5,1,15,30,3,7
1,1,2,0,10,12.01699999999999,20,69,26,57,85,12,25.49799999999998,2.2569999999999983,0.183,0.244,20,7,1,1,131,10,1,1,3,0,18,4.5,6,Lc,0.1946412213740458,0.22569999999999996,0.183,0.244,0.5,1,15,30,3,7
1,2,3,0,5,7.807999999999994,15,28,46,48,90,87,11.71199999999999,3.659999999999997,2.683999999999998,7.746999999999994,20,8,7,16,42,13,9,33,5,0,16,4,6,Lc,0.2788571428571428,0.28153846153846146,0.29822222222222217,0.23475757575757575,0.5,1,15,30,3,7
1,2,4,0,4,12.13899999999999,17,47,103,69,33,82,24.88799999999998,11.284999999999991,0.6709999999999998,0.9759999999999995,20,19,3,5,94,51,4,5,2,0,14,3.5,6,Lc,0.2647659574468085,0.22127450980392152,0.16775,0.19519999999999998,0.5,1,15,30,3,7
1,3,5,0,3,10.247999999999992,19,52,32,83,30,79,17.445999999999987,5.428999999999996,0.183,1.2809999999999993,20,12,1,5,85,22,1,6,5,0,16,4,6,Lc,0.2052470588235294,0.24677272727272725,0.183,0.2135,0.5,1,15,30,3,7
1,3,6,0,5,10.613999999999992,16,43,44,13,86,89,14.517999999999988,8.173999999999994,3.476999999999997,5.001999999999996,20,17,8,12,56,27,12,25,5,0,17,4.25,6,Lc,0.25925,0.3027407407407407,0.28974999999999995,0.20007999999999998,0.5,1,15,30,3,7
1,4,7,0,1,9.332999999999993,17,42,80,98,100,13,14.39599999999999,10.796999999999992,4.940999999999996,0.9149999999999996,20,18,12,2,58,59,21,4,3,0,13,3.25,6,Lc,0.24820689655172412,0.183,0.23528571428571426,0.22875,0.5,1,15,30,3,7
1,4,8,0,9,7.075999999999994,15,31,71,92,110,96,35.074999999999974,0.061,0.061,0.183,20,1,1,2,146,1,1,2,4,0,12,3,6,Lc,0.24023972602739724,0.061,0.061,0.0915,0.5,1,15,30,3,7
1,5,9,0,9,12.38299999999999,20,66,72,83,31,102,18.055999999999987,8.905999999999993,0.427,2.805999999999998,20,18,1,10,96,36,1,13,4,0,14,3.5,6,Lc,0.18808333333333332,0.24738888888888885,0.427,0.21584615384615385,0.5,1,15,30,3,7
1,5,10,0,10,6.8319999999999945,16,29,1,43,58,49,39.58899999999997,0.061,0.122,0.061,20,1,1,1,160,1,1,1,3,0,19,4.75,6,Lc,0.24743124999999996,0.061,0.122,0.061,0.5,1,15,30,3,7
1,6,11,1,9,15.859999999999987,19,81,105,81,64,99,21.288999999999984,1.463999999999999,4.818999999999996,4.452999999999997,20,6,11,13,102,6,14,14,4,0,11,2.75,6,Lc,0.2087156862745098,0.24399999999999994,0.34421428571428564,0.31807142857142856,0.5,1,15,30,3,7
1,6,12,1,6,9.210999999999993,18,48,4,9,51,29,11.83399999999999,5.7949999999999955,1.0979999999999994,4.269999999999997,20,9,4,14,55,13,4,23,6,0,21,5.25,6,Lc,0.21516363636363633,0.4457692307692306,0.27449999999999997,0.18565217391304345,0.5,1,15,30,3,7
1,7,13,1,9,7.990999999999993,14,39,72,71,64,65,13.602999999999989,12.74899999999999,0.305,6.770999999999995,20,18,3,14,61,52,3,28,4,1,48,4,6,Lc,0.22299999999999998,0.2451730769230769,0.10166666666666667,0.24182142857142855,0.5,1,15,30,3,7
1,7,14,1,5,10.369999999999992,19,53,43,102,40,42,11.223999999999991,8.966999999999993,0.7319999999999998,1.4029999999999991,20,18,3,7,56,36,4,10,5,0.5,32,4.25,6,Lc,0.20042857142857143,0.2490833333333333,0.183,0.1403,0.5,1,15,30,3,7
1,8,15,1,8,7.502999999999994,15,33,115,111,119,120,11.406999999999991,1.3419999999999992,2.805999999999998,14.334999999999988,20,6,10,17,52,8,17,65,2,1,24,2,6,Lc,0.2193653846153846,0.16775,0.16505882352941176,0.22053846153846152,0.5,1,15,30,3,7
1,8,16,1,10,9.515999999999993,17,48,87,88,99,98,9.881999999999993,3.842999999999997,4.940999999999996,3.3549999999999973,19,10,13,10,50,13,20,14,3,0,10,2.5,6,Lc,0.19764,0.2956153846153846,0.24704999999999996,0.2396428571428571,0.5,1,15,30,3,7
1,9,17,1,10,6.770999999999995,17,33,91,94,95,104,7.014999999999994,1.9519999999999986,11.284999999999991,9.149999999999993,18,9,15,15,34,9,47,38,3,0.5,20,2.75,6,Lc,0.2063235294117647,0.21688888888888883,0.2401063829787234,0.2407894736842105,0.5,1,15,30,3,7
1,9,18,1,2,8.051999999999994,17,44,55,60,50,52,10.674999999999992,0.8539999999999996,5.977999999999995,8.539999999999994,20,2,12,13,56,2,20,32,4,1,48,4,6,Lc,0.190625,0.42699999999999994,0.29889999999999994,0.266875,0.5,1,15,30,3,7
1,10,19,1,3,8.295999999999994,17,36,16,90,87,18,33.915999999999976,0.061,0.488,1.2809999999999993,20,1,1,5,133,1,1,8,5,0,18,4.5,6,Lc,0.25500751879699246,0.061,0.488,0.160125,0.5,1,15,30,3,7
1,10,20,1,6,7.319999999999994,17,33,3,5,1,4,7.563999999999994,5.001999999999996,4.025999999999997,0.7929999999999997,18,12,13,3,34,17,22,3,6,1,72,6,6,Lc,0.2224705882352941,0.29423529411764704,0.183,0.2643333333333333,0.5,1,15,30,3,7
1,11,21,1,8,9.393999999999993,17,45,117,111,115,94,10.918999999999992,2.744999999999998,0.305,10.796999999999992,20,7,1,16,51,13,1,42,2,0.5,15,2.25,6,Lc,0.21409803921568624,0.21115384615384614,0.305,0.2570714285714285,0.5,1,15,30,3,7
1,11,22,1,1,10.979999999999992,18,53,77,78,21,98,11.345999999999991,6.221999999999995,10.796999999999992,0.6099999999999999,20,14,17,5,56,24,48,5,3,0,14,3.5,6,Lc,0.20260714285714285,0.25925,0.22493749999999998,0.122,0.5,1,15,30,3,7
1,12,23,1,8,10.430999999999992,19,56,112,118,69,119,12.80999999999999,4.7579999999999965,2.9279999999999977,0.305,20,11,7,1,68,19,8,1,2,0.5,16,2.5,6,Lc,0.18838235294117647,0.25042105263157893,0.3659999999999999,0.305,0.5,1,15,30,3,7
1,12,24,1,4,2.683999999999998,12,16,7,92,38,55,171.22700000001203,0.122,0.122,0.122,20,2,1,1,718,2,1,1,2,0,18,4.5,6,Lc,0.2384777158774373,0.061,0.122,0.122,0.5,1,15,30,3,7
1,13,25,1,6,3.842999999999997,15,20,2,59,8,7,20.129999999999985,0.8539999999999996,1.585999999999999,0.5489999999999999,20,3,6,3,91,3,6,3,6,0.5,40,5.5,6,Lc,0.2212087912087912,0.2846666666666666,0.2643333333333333,0.183,0.5,1,15,30,3,7
1,13,26,1,3,8.173999999999994,19,43,33,36,34,72,10.491999999999992,3.1109999999999975,3.476999999999997,0.7319999999999998,20,8,13,3,58,10,19,3,5,0.5,34,4.75,6,Lc,0.18089655172413793,0.3111,0.183,0.244,0.5,1,15,30,3,7
1,14,27,1,4,9.576999999999993,19,47,13,20,98,106,26.656999999999982,0.5489999999999999,0.122,0.7319999999999998,20,4,2,6,132,4,2,6,2,0,16,4,6,Lc,0.20194696969696968,0.13724999999999998,0.061,0.122,0.5,1,15,30,3,7
1,14,28,1,3,7.8689999999999936,18,39,36,54,57,32,12.07799999999999,3.659999999999997,0.244,0.5489999999999999,20,14,3,4,58,19,3,4,5,0,18,4.5,6,Lc,0.2082413793103448,0.1926315789473684,0.08133333333333333,0.13724999999999998,0.5,1,15,30,3,7
1,15,29,1,7,7.502999999999994,15,38,13,18,20,106,21.654999999999983,1.3419999999999992,0.122,15.005999999999988,20,6,1,17,89,9,1,57,6,0.5,38,5,6,Lc,0.24331460674157301,0.1491111111111111,0.122,0.2632631578947368,0.5,1,15,30,3,7
1,15,30,1,5,9.088999999999993,18,35,48,41,40,38,11.528999999999991,10.796999999999992,2.1349999999999985,3.9649999999999967,20,17,8,11,48,40,9,16,5,1,60,5,6,Lc,0.2401875,0.26992499999999997,0.2372222222222222,0.24781249999999996,0.5,1,15,30,3,7
1,16,31,1,7,10.369999999999992,18,43,72,41,19,14,19.336999999999986,2.0129999999999986,0.305,3.1109999999999975,20,7,1,6,84,8,1,8,6,0,21,5.25,6,Lc,0.23020238095238094,0.251625,0.305,0.38887499999999997,0.5,1,15,30,3,7
1,16,32,1,6,10.613999999999992,20,61,59,11,9,6,13.17599999999999,6.8929999999999945,2.622999999999998,5.367999999999996,20,16,8,14,67,27,11,22,6,0.5,40,5.5,6,Lc,0.19665671641791044,0.25529629629629624,0.23845454545454545,0.244,0.5,1,15,30,3,7
1,17,33,1,1,8.966999999999993,17,39,82,83,12,80,10.674999999999992,5.123999999999996,9.698999999999993,0.366,20,11,15,5,48,20,39,5,3,0.5,24,3.75,6,Lc,0.22239583333333332,0.2562,0.24869230769230766,0.0732,0.5,1,15,30,3,7
1,17,34,1,7,3.1109999999999975,12,17,13,14,23,17,6.038999999999995,1.9519999999999986,5.123999999999996,6.8929999999999945,19,7,13,15,26,8,21,25,6,1,72,6,6,Lc,0.23226923076923076,0.24399999999999997,0.24399999999999997,0.27571999999999997,0.5,1,15,30,3,7
1,1,1,0,4,14.822999999999988,17,65,28,60,101,5,27.327999999999978,2.3179999999999983,1.7689999999999988,1.585999999999999,20,9,9,2,124,10,10,2,2,0,17,4.25,6,Lc,0.22038709677419352,0.23179999999999998,0.1769,0.7929999999999997,0.5,1,15,30,3,8
1,1,2,0,8,8.539999999999994,18,39,118,18,90,111,20.983999999999984,0.244,1.1589999999999994,3.1109999999999975,20,2,5,11,89,2,7,14,2,0,13,3.25,6,Lc,0.2357752808988764,0.122,0.16557142857142856,0.2222142857142857,0.5,1,15,30,3,8
1,2,3,0,1,10.918999999999992,18,47,78,82,105,103,15.00599999999999,0.6709999999999998,0.9149999999999996,1.524999999999999,20,4,3,6,63,4,3,7,3,0,10,2.5,6,Lc,0.23819047619047617,0.16775,0.30499999999999994,0.21785714285714286,0.5,1,15,30,3,8
1,2,4,0,10,12.13899999999999,18,63,29,93,90,8,22.203999999999983,0.061,2.1349999999999985,1.7689999999999988,20,1,5,8,98,1,8,10,3,0,17,4.25,6,Lc,0.22657142857142853,0.061,0.266875,0.17689999999999997,0.5,1,15,30,3,8
1,3,5,0,8,10.979999999999992,18,49,114,119,18,60,12.38299999999999,0.061,31.109999999999975,0.061,20,1,18,1,53,1,117,1,2,0,14,3.5,6,Lc,0.23364150943396225,0.061,0.26589743589743586,0.061,0.5,1,15,30,3,8
1,3,6,0,6,10.308999999999992,19,43,11,9,7,4,18.360999999999986,1.0979999999999994,7.319999999999994,2.622999999999998,20,5,16,8,78,6,29,11,6,1,72,6,6,Lc,0.23539743589743586,0.183,0.25241379310344825,0.23845454545454545,0.5,1,15,30,3,8
1,4,7,0,8,12.44399999999999,18,56,28,117,20,21,20.800999999999984,0.244,3.598999999999997,2.439999999999998,20,1,9,8,96,1,10,10,2,0,19,4.75,6,Lc,0.2166770833333333,0.244,0.3598999999999999,0.244,0.5,1,15,30,3,8
1,4,8,0,6,7.807999999999994,16,38,6,3,98,55,14.944999999999988,15.493999999999987,0.183,0.061,20,18,2,1,64,67,2,1,6,0,18,4.5,6,Lc,0.23351562499999998,0.23125373134328356,0.0915,0.061,0.5,1,15,30,3,8
1,5,9,0,10,7.014999999999994,16,38,101,5,86,105,15.18899999999999,3.9649999999999967,3.2329999999999974,0.366,20,12,11,3,79,14,21,3,3,0,13,3.25,6,Lc,0.1922658227848101,0.2832142857142857,0.15395238095238095,0.122,0.5,1,15,30,3,8
1,5,10,0,1,13.724999999999989,19,64,82,116,75,23,17.872999999999987,2.3179999999999983,5.7339999999999955,6.038999999999995,20,10,13,9,78,14,23,17,3,0,14,3.5,6,Lc,0.22914102564102565,0.16557142857142856,0.24930434782608693,0.355235294117647,0.5,1,15,30,3,8
1,6,11,1,9,9.271999999999993,16,46,69,105,98,71,10.430999999999992,4.635999999999997,1.7689999999999988,1.9519999999999986,20,9,2,6,50,16,3,8,4,0,12,3,6,Lc,0.20862,0.28974999999999995,0.5896666666666665,0.244,0.5,1,15,30,3,8
1,6,12,1,1,8.722999999999994,17,38,116,117,120,18,16.16499999999999,2.0739999999999985,12.19999999999999,14.395999999999988,20,10,17,17,62,11,49,68,3,0.5,18,3,6,Lc,0.26072580645161286,0.18854545454545454,0.24897959183673468,0.21170588235294116,0.5,1,15,30,3,8
1,7,13,1,6,11.345999999999991,19,51,10,119,6,118,15.188999999999988,9.149999999999993,2.3179999999999983,1.646999999999999,20,14,7,5,73,30,9,7,6,0,16,4,6,Lc,0.20806849315068493,0.30499999999999994,0.25755555555555554,0.23528571428571426,0.5,1,15,30,3,8
1,7,14,1,5,10.247999999999992,19,61,52,42,38,14,13.663999999999989,3.537999999999997,0.8539999999999996,5.245999999999996,20,14,4,12,75,21,5,25,5,0,20,5,6,Lc,0.18218666666666666,0.16847619047619047,0.1708,0.20984,0.5,1,15,30,3,8
1,8,15,1,8,10.918999999999992,20,58,20,14,112,118,28.91399999999998,17.567999999999987,4.7579999999999965,0.9759999999999995,20,18,14,7,131,69,21,7,2,0,16,4,6,Lc,0.22071755725190836,0.25460869565217387,0.22657142857142853,0.13942857142857143,0.5,1,15,30,3,8
1,8,16,1,9,6.953999999999994,15,27,3,70,61,69,19.092999999999986,1.524999999999999,0.427,1.463999999999999,20,4,1,5,79,5,1,8,4,0.5,30,4.5,6,Lc,0.24168354430379746,0.3049999999999999,0.427,0.183,0.5,1,15,30,3,8
1,9,17,1,8,5.672999999999996,14,24,109,53,118,25,7.197999999999995,1.524999999999999,4.208999999999997,1.524999999999999,19,4,9,7,29,6,10,8,2,0,13,3.25,6,Lc,0.24820689655172412,0.25416666666666665,0.4208999999999999,0.190625,0.5,1,15,30,3,8
1,9,18,1,9,8.234999999999994,16,41,66,64,45,108,15.18899999999999,1.2809999999999993,19.641999999999985,0.122,20,5,18,1,72,8,85,1,4,0,15,3.75,6,Lc,0.21095833333333333,0.160125,0.23108235294117646,0.122,0.5,1,15,30,3,8
1,10,19,1,6,7.624999999999994,12,23,3,5,25,89,12.62699999999999,2.0739999999999985,1.7079999999999989,1.524999999999999,20,9,9,7,42,10,12,7,6,0,20,5,6,Lc,0.3006428571428571,0.20739999999999997,0.14233333333333334,0.21785714285714283,0.5,1,15,30,3,8
1,10,20,1,1,6.587999999999995,16,27,15,40,21,59,26.22999999999998,0.122,0.305,0.305,20,1,2,2,107,1,2,2,3,0,21,5.25,6,Lc,0.24514018691588782,0.122,0.1525,0.1525,0.5,1,15,30,3,8
1,11,21,1,9,9.027999999999993,16,38,67,116,63,23,15.24999999999999,7.563999999999994,0.9759999999999995,1.9519999999999986,20,15,7,6,64,37,7,7,4,0,16,4,6,Lc,0.23828124999999997,0.20443243243243242,0.13942857142857143,0.2788571428571428,0.5,1,15,30,3,8
1,11,22,1,5,7.319999999999994,16,36,1,3,99,57,27.693999999999978,9.698999999999993,0.061,0.6709999999999998,20,18,1,4,121,42,1,5,5,0,18,4.5,6,Lc,0.2288760330578512,0.2309285714285714,0.061,0.13419999999999999,0.5,1,15,30,3,8
1,12,23,1,5,4.879999999999996,14,25,2,38,47,43,19.641999999999985,1.0369999999999995,1.7689999999999988,1.463999999999999,20,6,6,6,78,6,9,6,5,0.5,36,5.25,6,Lc,0.25182051282051277,0.17283333333333334,0.19655555555555554,0.24399999999999997,0.5,1,15,30,3,8
1,12,24,1,2,7.502999999999994,16,35,17,23,33,98,36.17299999999997,0.305,0.061,0.366,20,1,1,4,177,1,1,4,4,0,19,4.75,6,Lc,0.20436723163841805,0.305,0.061,0.0915,0.5,1,15,30,3,8
1,13,25,1,8,9.027999999999993,17,47,113,118,116,28,14.45699999999999,4.574999999999997,8.234999999999994,11.528999999999991,20,10,16,16,65,21,39,49,2,0.5,17,2.75,6,Lc,0.2224153846153846,0.21785714285714283,0.21115384615384614,0.23528571428571426,0.5,1,15,30,3,8
1,13,26,1,1,13.05399999999999,19,58,101,80,78,76,16.40899999999999,2.9279999999999977,0.366,1.0369999999999995,20,11,1,5,66,15,1,6,3,0.5,20,2.75,6,Lc,0.2486212121212121,0.19519999999999998,0.366,0.17283333333333334,0.5,1,15,30,3,8
1,14,27,1,5,7.502999999999994,16,34,39,46,42,113,24.39999999999998,0.9149999999999996,3.598999999999997,2.3789999999999982,20,5,8,8,105,6,12,11,5,0.5,32,4.25,6,Lc,0.23238095238095235,0.1525,0.29991666666666655,0.21627272727272723,0.5,1,15,30,3,8
1,14,28,1,7,11.589999999999991,19,52,13,34,14,53,16.40899999999999,1.2809999999999993,2.2569999999999983,9.088999999999993,20,3,7,16,69,5,9,37,6,0,21,5.25,6,Lc,0.23781159420289852,0.2562,0.25077777777777777,0.24564864864864863,0.5,1,15,30,3,8
1,15,29,1,3,14.212999999999989,19,59,28,104,105,26,20.251999999999985,1.0369999999999995,3.842999999999997,3.1109999999999975,20,5,10,10,87,5,15,15,5,0,14,3.5,6,Lc,0.23278160919540228,0.2074,0.2562,0.20739999999999995,0.5,1,15,30,3,8
1,15,30,1,7,8.478999999999994,17,42,16,14,109,20,14.51799999999999,2.744999999999998,7.197999999999994,3.2939999999999974,20,14,15,9,76,19,23,11,6,0.5,38,5,6,Lc,0.19102631578947366,0.1444736842105263,0.31295652173913036,0.2994545454545454,0.5,1,15,30,3,8
1,16,31,1,2,11.528999999999991,19,50,57,6,58,49,19.153999999999986,0.6709999999999998,0.7319999999999998,2.0129999999999986,20,3,3,6,77,3,3,7,4,0.5,30,4.5,6,Lc,0.24875324675324673,0.22366666666666665,0.244,0.28757142857142853,0.5,1,15,30,3,8
1,16,32,1,7,11.467999999999991,20,44,17,21,18,71,12.56599999999999,6.8319999999999945,5.367999999999996,2.0739999999999985,20,16,15,9,50,25,23,11,6,0.5,40,5.5,6,Lc,0.25131999999999993,0.27327999999999997,0.23339130434782607,0.18854545454545454,0.5,1,15,30,3,8
1,17,33,1,2,13.48099999999999,19,53,50,9,99,51,14.883999999999988,6.343999999999995,0.6709999999999998,0.488,20,12,3,3,57,22,3,3,4,0,16,4,6,Lc,0.2611228070175438,0.2883636363636363,0.22366666666666665,0.16266666666666665,0.5,1,15,30,3,8
1,17,34,1,7,6.587999999999995,15,26,17,118,23,13,10.857999999999992,7.624999999999994,0.061,7.685999999999994,20,14,1,16,45,26,1,29,6,0.5,38,5,6,Lc,0.24128888888888889,0.2932692307692307,0.061,0.2650344827586207,0.5,1,15,30,3,8
1,1,1,0,5,10.552999999999992,20,52,47,39,43,6,11.71199999999999,4.574999999999997,1.8299999999999987,1.524999999999999,20,14,4,3,61,31,4,3,5,0.5,36,5.25,6,Lc,0.192,0.14758064516129032,0.45749999999999996,0.5083333333333331,0.5,1,15,30,3,9
1,1,2,0,9,13.41999999999999,20,58,69,66,20,22,14.090999999999989,3.1109999999999975,4.6969999999999965,2.805999999999998,20,9,13,10,59,10,18,14,4,0,20,5,6,Lc,0.23883050847457626,0.31109999999999993,0.2609444444444444,0.2004285714285714,0.5,1,15,30,3,9
1,2,3,0,1,6.404999999999995,15,30,78,98,84,83,15.12799999999999,3.598999999999997,1.1589999999999994,0.244,20,10,2,4,62,14,2,4,3,0.5,20,2.75,6,Lc,0.244,0.25707142857142856,0.5794999999999999,0.061,0.5,1,15,30,3,9
1,2,4,0,10,11.589999999999991,19,44,85,36,16,24,19.092999999999986,7.136999999999994,6.953999999999994,4.513999999999997,20,17,15,13,77,27,32,19,3,0,20,5,6,Lc,0.24796103896103894,0.2643333333333333,0.21731249999999996,0.237578947368421,0.5,1,15,30,3,9
1,3,5,0,10,8.051999999999994,16,37,93,14,85,39,21.532999999999983,0.366,2.0129999999999986,6.465999999999995,20,2,9,15,100,2,10,31,3,0,17,4.25,6,Lc,0.21533,0.183,0.20129999999999998,0.2085806451612903,0.5,1,15,30,3,9
1,3,6,0,6,10.186999999999992,18,46,3,2,97,33,15.554999999999989,16.774999999999988,0.122,0.061,20,19,1,1,74,66,1,1,6,0,19,4.75,6,Lc,0.2102027027027027,0.25416666666666665,0.122,0.061,0.5,1,15,30,3,9
1,4,7,0,5,11.406999999999991,20,57,40,45,20,23,11.95599999999999,3.842999999999997,10.003999999999992,0.183,20,15,16,1,63,21,47,1,5,0,22,5.5,6,Lc,0.18977777777777777,0.183,0.21285106382978722,0.183,0.5,1,15,30,3,9
1,4,8,0,2,9.149999999999993,19,54,30,51,60,88,12.99299999999999,1.7079999999999989,3.598999999999997,2.9279999999999977,20,7,12,12,72,9,19,17,4,0,16,4,6,Lc,0.18045833333333333,0.18977777777777777,0.18942105263157893,0.17223529411764704,0.5,1,15,30,3,9
1,5,9,0,8,7.441999999999994,18,36,22,13,114,117,11.71199999999999,6.587999999999995,0.488,2.805999999999998,20,10,2,11,46,23,2,14,2,0,16,4,6,Lc,0.25460869565217387,0.2864347826086956,0.244,0.20042857142857143,0.5,1,15,30,3,9
1,5,10,0,9,10.308999999999992,14,48,67,63,9,106,12.19999999999999,8.966999999999993,2.1349999999999985,1.463999999999999,20,19,6,3,56,47,8,4,4,0,16,4,6,Lc,0.21785714285714283,0.19078723404255318,0.2668749999999999,0.366,0.5,1,15,30,3,9
1,6,11,1,8,7.441999999999994,17,29,116,28,110,33,12.74899999999999,11.528999999999991,0.8539999999999996,1.646999999999999,20,17,3,4,57,35,5,6,2,0,14,3.5,6,Lc,0.22366666666666665,0.32939999999999997,0.1708,0.27449999999999997,0.5,1,15,30,3,9
1,6,12,1,5,7.319999999999994,17,36,40,97,51,47,21.410999999999984,5.7339999999999955,1.0369999999999995,1.1589999999999994,20,14,5,4,91,28,6,4,5,0,16,4,6,Lc,0.23528571428571426,0.20478571428571427,0.17283333333333334,0.28974999999999995,0.5,1,15,30,3,9
1,7,13,1,2,9.393999999999993,19,47,14,59,105,99,60.38999999999995,0.061,0.427,0.5489999999999999,20,1,2,4,249,1,2,5,4,0,14,3.5,6,Lc,0.24253012048192774,0.061,0.2135,0.1098,0.5,1,15,30,3,9
1,7,14,1,8,9.271999999999993,15,40,118,46,89,86,15.615999999999989,6.465999999999995,0.305,1.8299999999999987,20,16,1,5,65,33,1,7,2,0,13,3.25,6,Lc,0.2402461538461538,0.1959393939393939,0.305,0.26142857142857134,0.5,1,15,30,3,9
1,8,15,1,9,8.966999999999993,19,47,66,92,70,87,10.186999999999992,7.014999999999994,0.427,2.0129999999999986,20,13,3,7,55,23,4,7,4,0,14,3.5,6,Lc,0.1852181818181818,0.30499999999999994,0.10675,0.28757142857142853,0.5,1,15,30,3,9
1,8,16,1,8,8.783999999999994,19,48,26,25,119,34,14.21299999999999,26.10799999999998,3.3549999999999973,10.064999999999992,20,19,10,17,72,113,14,52,2,0.5,32,4.25,6,Lc,0.19740277777777776,0.2310442477876106,0.23964285714285713,0.1935576923076923,0.5,1,15,30,3,9
1,9,17,1,1,7.685999999999994,16,32,80,79,81,43,10.552999999999992,0.6709999999999998,1.524999999999999,7.746999999999994,20,3,7,15,44,3,7,34,3,0.5,23,3.5,6,Lc,0.23984090909090908,0.22366666666666665,0.21785714285714286,0.22785294117647056,0.5,1,15,30,3,9
1,9,18,1,9,11.101999999999991,20,54,62,70,61,36,20.373999999999985,4.452999999999997,7.319999999999994,6.221999999999995,20,11,14,12,83,16,34,19,4,0.5,29,4.25,6,Lc,0.24546987951807228,0.27831249999999996,0.2152941176470588,0.32747368421052625,0.5,1,15,30,3,9
1,10,19,1,6,7.075999999999994,13,30,107,7,10,52,12.44399999999999,2.9279999999999977,0.6099999999999999,1.8299999999999987,20,9,4,8,49,9,4,11,6,0,18,4.5,6,Lc,0.25395918367346937,0.3253333333333333,0.1525,0.16636363636363635,0.5,1,15,30,3,9
1,10,20,1,5,8.417999999999994,17,39,46,42,38,20,11.83399999999999,0.7929999999999997,9.820999999999993,6.038999999999995,20,3,16,11,52,4,38,23,5,0.5,36,5.25,6,Lc,0.22757692307692307,0.19824999999999998,0.2584473684210526,0.2625652173913043,0.5,1,15,30,3,9
1,11,21,1,1,6.465999999999995,15,30,77,102,103,105,16.774999999999988,5.916999999999995,1.7079999999999989,2.3179999999999983,20,12,6,7,73,19,8,13,3,0.5,15,2.25,6,Lc,0.2297945205479452,0.3114210526315789,0.2135,0.1783076923076923,0.5,1,15,30,3,9
1,11,22,1,8,8.722999999999994,20,37,13,85,112,48,28.97499999999998,0.9759999999999995,0.9759999999999995,0.122,20,3,4,1,123,3,6,1,2,0,16,4,6,Lc,0.23556910569105688,0.3253333333333333,0.16266666666666665,0.122,0.5,1,15,30,3,9
1,12,23,1,6,5.977999999999995,15,29,1,5,9,7,16.835999999999988,2.622999999999998,1.4029999999999991,1.1589999999999994,20,8,7,6,78,15,7,7,6,1,72,6,6,Lc,0.21584615384615383,0.17486666666666667,0.20042857142857143,0.16557142857142856,0.5,1,15,30,3,9
1,12,24,1,5,8.478999999999994,17,36,40,57,58,90,12.38299999999999,2.3789999999999982,4.879999999999996,0.427,20,6,11,4,55,8,19,4,5,0,16,4,6,Lc,0.22514545454545454,0.297375,0.25684210526315787,0.10675,0.5,1,15,30,3,9
1,13,25,1,1,10.186999999999992,18,51,81,76,48,106,11.345999999999991,2.3179999999999983,8.478999999999994,14.578999999999988,20,7,14,16,54,7,28,51,3,0,13,3.25,6,Lc,0.21011111111111108,0.33114285714285707,0.3028214285714285,0.28586274509803916,0.5,1,15,30,3,9
1,13,26,1,8,6.8929999999999945,20,40,1,70,113,63,231.98300000001856,0.061,0.061,0.122,20,1,1,1,907,1,1,1,2,0,16,4,6,Lc,0.2557695700110254,0.061,0.061,0.122,0.5,1,15,30,3,9
1,14,27,1,6,9.576999999999993,19,47,11,6,4,1,12.56599999999999,6.160999999999995,0.5489999999999999,8.783999999999994,20,16,4,16,58,29,5,39,6,1,72,6,6,Lc,0.2166551724137931,0.21244827586206896,0.1098,0.2252307692307692,0.5,1,15,30,3,9
1,14,28,1,8,11.89499999999999,17,49,120,96,117,112,13.968999999999989,4.208999999999997,14.944999999999988,3.4159999999999973,20,13,18,9,56,15,64,12,2,0.5,15,2.25,6,Lc,0.24944642857142854,0.28059999999999996,0.23351562499999998,0.2846666666666666,0.5,1,15,30,3,9
1,15,29,1,7,5.7949999999999955,13,23,13,90,21,17,8.844999999999994,0.122,2.2569999999999983,5.7949999999999955,20,2,8,13,40,2,10,22,6,0.5,39,5.25,6,Lc,0.221125,0.061,0.22569999999999998,0.26340909090909087,0.5,1,15,30,3,9
1,15,30,1,1,11.71199999999999,19,51,84,82,76,106,16.16499999999999,1.524999999999999,2.805999999999998,2.3789999999999982,20,9,8,11,76,10,12,13,3,0.5,20,2.75,6,Lc,0.2126973684210526,0.1525,0.2338333333333333,0.183,0.5,1,15,30,3,9
1,16,31,1,7,5.489999999999996,16,30,14,22,18,102,18.665999999999986,0.122,8.661999999999994,2.3789999999999982,20,2,14,7,86,2,30,11,6,0.5,38,5,6,Lc,0.21704651162790695,0.061,0.2887333333333333,0.21627272727272726,0.5,1,15,30,3,9
1,16,32,1,10,4.7579999999999965,14,27,96,112,115,114,15.00599999999999,16.04299999999999,12.13899999999999,6.282999999999995,20,18,17,15,74,71,45,26,3,0.5,15,2.25,6,Lc,0.20278378378378378,0.2259577464788732,0.2697555555555555,0.24165384615384614,0.5,1,15,30,3,9
1,1,1,0,5,11.650999999999991,18,55,44,46,47,56,11.95599999999999,3.537999999999997,6.038999999999995,2.9889999999999977,20,13,15,12,57,19,26,19,5,0.5,34,4.75,6,Lc,0.20975438596491228,0.18621052631578947,0.23226923076923076,0.1573157894736842,0.5,1,15,30,3,10
1,1,2,0,9,12.32199999999999,20,52,77,34,70,31,22.630999999999982,1.8299999999999987,3.1109999999999975,0.6709999999999998,20,6,9,4,97,7,13,5,4,0,17,4.25,6,Lc,0.23330927835051546,0.2614285714285714,0.2393076923076923,0.13419999999999999,0.5,1,15,30,3,10
1,2,3,0,1,9.881999999999993,16,42,74,60,34,51,10.918999999999992,13.23699999999999,1.463999999999999,1.646999999999999,20,18,6,9,49,55,8,9,3,0,16,4,6,Lc,0.22283673469387755,0.24067272727272723,0.18299999999999997,0.183,0.5,1,15,30,3,10
1,2,4,0,7,7.685999999999994,15,35,19,18,106,101,12.26099999999999,23.240999999999982,0.244,0.5489999999999999,20,19,3,4,59,95,3,5,6,0,16,4,6,Lc,0.20781355932203388,0.24464210526315788,0.08133333333333333,0.1098,0.5,1,15,30,3,10
1,3,5,0,6,14.761999999999988,20,76,81,34,6,55,23.72899999999998,0.9759999999999995,0.6099999999999999,4.147999999999997,20,4,2,11,112,4,2,20,6,0,18,4.5,6,Lc,0.21186607142857142,0.244,0.305,0.20739999999999997,0.5,1,15,30,3,10
1,3,6,0,5,6.038999999999995,17,38,44,103,37,48,13.724999999999989,0.244,1.463999999999999,3.1109999999999975,20,1,7,12,68,1,10,18,5,0.5,32,4.25,6,Lc,0.20183823529411762,0.244,0.1464,0.17283333333333334,0.5,1,15,30,3,10
1,4,7,0,4,10.308999999999992,16,43,97,107,92,86,17.933999999999987,4.025999999999997,2.1349999999999985,6.038999999999995,20,10,7,13,85,13,11,21,2,0,10,2.5,6,Lc,0.21098823529411764,0.30969230769230766,0.1940909090909091,0.28757142857142853,0.5,1,15,30,3,10
1,4,8,0,6,11.101999999999991,17,44,12,5,1,74,15.737999999999989,2.1349999999999985,4.940999999999996,6.709999999999995,20,9,12,15,66,10,20,26,6,0.5,39,5.25,6,Lc,0.23845454545454545,0.2135,0.24705,0.25807692307692304,0.5,1,15,30,3,10
1,5,9,0,8,7.258999999999994,15,37,117,114,116,115,7.319999999999994,6.221999999999995,14.456999999999988,0.6099999999999999,16,16,18,2,38,20,56,2,2,1,24,2,6,Lc,0.1926315789473684,0.3111,0.25816071428571424,0.305,0.5,1,15,30,3,10
1,5,10,0,9,13.48099999999999,20,50,97,67,105,22,22.325999999999983,0.366,0.9149999999999996,6.587999999999995,20,2,3,12,85,2,3,28,4,0,14,3.5,6,Lc,0.2626588235294117,0.183,0.30499999999999994,0.23528571428571426,0.5,1,15,30,3,10
1,6,11,1,8,11.223999999999991,20,59,91,118,110,116,23.72899999999998,3.0499999999999976,2.1349999999999985,2.439999999999998,20,10,9,8,115,12,12,11,2,0.5,15,2.25,6,Lc,0.20633913043478258,0.25416666666666665,0.17791666666666664,0.2218181818181818,0.5,1,15,30,3,10
1,6,12,1,6,8.722999999999994,18,41,9,77,5,8,13.78599999999999,1.463999999999999,3.4159999999999973,0.7319999999999998,20,7,7,5,58,10,10,6,6,0.5,39,5.25,6,Lc,0.23768965517241378,0.1464,0.3415999999999999,0.122,0.5,1,15,30,3,10
1,7,13,1,1,13.724999999999989,20,71,76,84,80,55,22.691999999999982,2.8669999999999978,0.7929999999999997,8.295999999999994,20,11,6,14,105,13,6,32,3,0.5,22,3.25,6,Lc,0.2161142857142857,0.22053846153846152,0.13216666666666665,0.25925,0.5,1,15,30,3,10
1,7,14,1,8,5.611999999999996,9,22,2,67,118,12,20.739999999999984,0.488,0.061,0.183,20,1,1,2,91,1,1,2,2,0,18,4.5,6,Lc,0.2279120879120879,0.488,0.061,0.0915,0.5,1,15,30,3,10
1,8,15,1,6,10.613999999999992,17,46,8,2,5,10,15.06699999999999,8.966999999999993,0.122,6.8319999999999945,20,16,1,14,65,34,1,29,6,1,72,6,6,Lc,0.23179999999999998,0.263735294117647,0.122,0.23558620689655171,0.5,1,15,30,3,10
1,8,16,1,8,11.467999999999991,19,59,28,77,117,116,15.49399999999999,8.661999999999994,0.305,1.9519999999999986,20,17,3,8,72,40,3,12,2,0,12,3,6,Lc,0.21519444444444444,0.21654999999999996,0.10166666666666667,0.16266666666666665,0.5,1,15,30,3,10
1,9,17,1,3,9.454999999999993,19,48,28,31,36,98,13.480999999999991,2.683999999999998,22.630999999999982,1.4029999999999991,20,6,18,7,64,11,103,10,5,0.5,32,4.25,6,Lc,0.21064062499999997,0.244,0.21971844660194173,0.1403,0.5,1,15,30,3,10
1,9,18,1,5,8.051999999999994,16,34,46,42,13,16,12.687999999999992,3.2329999999999974,15.493999999999987,1.524999999999999,20,11,18,4,57,15,58,5,5,0,22,5.5,6,Lc,0.22259649122807015,0.21553333333333333,0.2671379310344827,0.305,0.5,1,15,30,3,10
1,10,19,1,1,4.513999999999997,11,22,77,78,3,99,17.933999999999987,1.8299999999999987,1285.0869999998954,0.061,20,6,18,1,75,8,5262,1,3,0,14,3.5,6,Lc,0.23911999999999997,0.22874999999999998,0.2442202584568605,0.061,0.5,1,15,30,3,10
1,10,20,1,7,8.356999999999994,17,38,13,24,95,90,20.983999999999984,0.5489999999999999,2.561999999999998,1.7689999999999988,20,1,8,8,79,1,10,10,6,0,18,4.5,6,Lc,0.26562025316455695,0.5489999999999999,0.2562,0.1769,0.5,1,15,30,3,10
1,11,21,1,8,7.380999999999994,18,34,120,113,3,119,13.663999999999989,2.1349999999999985,6.343999999999995,9.210999999999993,20,8,16,12,63,11,34,35,2,0.5,18,3,6,Lc,0.21688888888888888,0.1940909090909091,0.18658823529411764,0.26317142857142856,0.5,1,15,30,3,10
1,11,22,1,9,9.149999999999993,16,51,34,36,27,20,11.89499999999999,4.086999999999997,4.391999999999997,5.550999999999996,19,8,13,12,56,17,20,23,4,0.5,36,5.25,6,Lc,0.21241071428571426,0.2404117647058823,0.2196,0.2413478260869565,0.5,1,15,30,3,10
1,12,23,1,3,13.23699999999999,20,70,103,36,34,13,18.726999999999986,4.452999999999997,7.685999999999994,4.391999999999997,20,9,17,13,89,14,38,20,5,0,18,4.5,6,Lc,0.21041573033707864,0.3180714285714285,0.2022631578947368,0.21959999999999996,0.5,1,15,30,3,10
1,12,24,1,1,6.8319999999999945,18,39,84,74,82,109,8.905999999999993,8.844999999999994,5.672999999999996,3.0499999999999976,20,17,12,10,52,36,18,16,3,0.5,20,2.75,6,Lc,0.17126923076923076,0.24569444444444444,0.3151666666666666,0.190625,0.5,1,15,30,3,10
1,1,1,0,8,10.613999999999992,17,48,119,114,95,92,13.846999999999989,3.537999999999997,0.061,3.4159999999999973,20,11,1,10,58,15,1,15,2,0,10,2.5,6,Hc,0.2387413793103448,0.23586666666666664,0.061,0.22773333333333332,0.5,1,15,30,3,1
1,1,2,0,5,10.674999999999992,18,50,47,76,57,58,31.658999999999978,0.061,0.061,0.061,20,1,1,1,133,1,1,1,5,0,16,4,6,Hc,0.23803759398496238,0.061,0.061,0.061,0.5,1,15,30,3,1
1,2,3,0,8,9.088999999999993,17,39,119,96,3,117,22.508999999999983,5.306999999999996,1.524999999999999,2.3179999999999983,20,15,7,8,101,24,7,9,2,0,13,3.25,6,Hc,0.22286138613861384,0.221125,0.21785714285714283,0.25755555555555554,0.5,1,15,30,3,1
1,2,4,0,1,12.93199999999999,18,59,79,52,105,60,17.506999999999987,10.552999999999992,1.2809999999999993,0.7319999999999998,20,19,4,3,78,50,6,3,3,0,13,3.25,6,Hc,0.22444871794871793,0.21105999999999997,0.2135,0.244,0.5,1,15,30,3,1
1,3,5,0,6,14.456999999999988,17,52,11,4,9,41,22.630999999999982,1.8909999999999987,7.136999999999994,6.221999999999995,20,6,12,15,89,7,27,29,6,0.5,23,5.75,6,Hc,0.2542808988764045,0.27014285714285713,0.2643333333333333,0.21455172413793103,0.5,1,15,30,3,1
1,3,6,0,9,12.93199999999999,19,59,88,66,61,24,15.859999999999987,3.842999999999997,5.550999999999996,14.090999999999989,20,8,14,15,71,13,23,63,4,0,17,4.25,6,Hc,0.22338028169014082,0.29561538461538456,0.2413478260869565,0.22366666666666665,0.5,1,15,30,3,1
1,4,7,0,5,9.332999999999993,18,47,37,41,39,1,12.80999999999999,1.0369999999999995,5.123999999999996,1.9519999999999986,20,5,13,7,65,6,20,10,5,0.5,21,5.25,6,Hc,0.19707692307692307,0.17283333333333334,0.2562,0.19519999999999998,0.5,1,15,30,3,1
1,4,8,0,9,10.430999999999992,19,48,71,63,66,62,14.82299999999999,3.2939999999999974,4.147999999999997,9.149999999999993,20,9,12,16,69,13,17,46,4,1,48,4,6,Hc,0.21482608695652172,0.2533846153846154,0.24399999999999997,0.19891304347826086,0.5,1,15,30,3,1
1,5,9,0,6,7.807999999999994,19,47,4,61,92,100,37.33199999999997,1.0369999999999995,2.744999999999998,0.061,20,4,9,1,193,5,11,1,6,0,15,3.75,6,Hc,0.19343005181347148,0.2074,0.2495454545454545,0.061,0.5,1,15,30,3,1
1,5,10,0,8,5.001999999999996,12,22,47,80,118,115,30.804999999999975,0.061,1.2809999999999993,0.183,20,1,4,3,135,1,6,3,2,0,12,3,6,Hc,0.22818518518518516,0.061,0.2135,0.061,0.5,1,15,30,3,1
1,6,11,1,1,6.953999999999994,12,27,75,73,80,18,8.783999999999994,0.7319999999999998,10.674999999999992,4.6969999999999965,18,5,18,15,35,7,56,26,3,0.5,15,3.75,6,Hc,0.25097142857142857,0.10457142857142857,0.190625,0.18065384615384614,0.5,1,15,30,3,1
1,6,12,1,3,7.441999999999994,15,39,8,101,26,27,15.920999999999989,1.2809999999999993,1.524999999999999,0.488,20,2,5,2,72,2,6,2,5,0,18,4.5,6,Hc,0.221125,0.6404999999999998,0.25416666666666665,0.244,0.5,1,15,30,3,1
1,7,13,1,8,5.184999999999996,13,19,33,118,116,112,12.87099999999999,0.061,3.2939999999999974,11.040999999999991,20,1,10,15,49,1,16,51,2,0.5,11,2.75,6,Hc,0.2626734693877551,0.061,0.20587499999999997,0.21649019607843137,0.5,1,15,30,3,1
1,7,14,1,4,12.26099999999999,20,69,55,104,106,76,17.140999999999988,2.500999999999998,1.0369999999999995,5.001999999999996,20,12,3,10,82,14,4,17,2,0,11,2.75,6,Hc,0.20903658536585365,0.17864285714285713,0.2592499999999999,0.29423529411764704,0.5,1,15,30,3,1
1,8,15,1,9,8.478999999999994,17,45,67,36,25,79,14.94499999999999,26.41299999999998,3.0499999999999976,0.061,20,19,11,1,79,116,14,1,4,0,17,4.25,6,Hc,0.1891772151898734,0.22769827586206892,0.21785714285714286,0.061,0.5,1,15,30,3,1
1,8,16,1,2,9.759999999999993,17,39,58,50,55,100,17.262999999999987,5.184999999999996,0.488,0.183,20,15,2,2,76,25,2,2,4,0.5,14,3.5,6,Hc,0.22714473684210523,0.2074,0.244,0.0915,0.5,1,15,30,3,1
1,9,17,1,10,7.9299999999999935,18,40,86,100,98,87,14.639999999999988,3.9649999999999967,3.537999999999997,3.4159999999999973,20,12,11,7,67,18,16,9,3,0,10,2.5,6,Hc,0.21850746268656715,0.22027777777777777,0.221125,0.3795555555555554,0.5,1,15,30,3,1
1,9,18,1,5,9.515999999999993,17,53,44,46,74,43,9.698999999999993,3.1109999999999975,1.7079999999999989,1.4029999999999991,19,12,6,6,55,18,7,7,5,0.5,18,4.5,6,Hc,0.17634545454545453,0.1728333333333333,0.24399999999999997,0.20042857142857143,0.5,1,15,30,3,1
1,10,19,1,6,7.258999999999994,20,42,3,37,9,7,14.090999999999989,3.0499999999999976,1.2199999999999993,0.7319999999999998,20,7,5,3,64,9,6,4,6,0.5,23,5.75,6,Hc,0.220171875,0.3388888888888888,0.20333333333333334,0.183,0.5,1,15,30,3,1
1,10,20,1,2,5.123999999999996,14,24,51,81,77,56,6.7709999999999955,3.1719999999999975,6.160999999999995,9.698999999999993,20,9,11,17,36,13,23,47,4,0,14,3.5,6,Hc,0.18808333333333332,0.24399999999999997,0.26786956521739125,0.20636170212765956,0.5,1,15,30,3,1
1,11,21,1,2,7.075999999999994,14,28,54,45,57,74,7.624999999999995,8.295999999999994,5.001999999999996,0.122,20,18,9,1,34,43,13,1,4,0,16,4,6,Hc,0.2242647058823529,0.19293023255813951,0.3847692307692307,0.122,0.5,1,15,30,3,1
1,11,22,1,7,4.818999999999996,12,21,16,18,29,86,16.34799999999999,2.1959999999999984,1.0979999999999994,0.427,20,8,3,3,80,10,4,3,6,0,20,5,6,Hc,0.20434999999999998,0.21959999999999996,0.27449999999999997,0.14233333333333334,0.5,1,15,30,3,1
1,12,23,1,6,11.650999999999991,19,52,10,49,111,2,14.578999999999988,8.844999999999994,0.305,2.439999999999998,20,14,2,11,63,28,2,12,6,0,18,4.5,6,Hc,0.2314126984126984,0.3158928571428571,0.1525,0.20333333333333334,0.5,1,15,30,3,1
1,12,24,1,5,5.977999999999995,17,29,40,44,48,107,11.467999999999991,1.8299999999999987,4.025999999999997,3.720999999999997,20,4,8,10,53,4,18,18,5,0.5,17,4.25,6,Hc,0.21637735849056602,0.4574999999999998,0.22366666666666665,0.2067222222222222,0.5,1,15,30,3,1
1,13,25,1,8,9.210999999999993,19,42,117,113,58,49,14.57899999999999,1.4029999999999991,5.306999999999996,0.8539999999999996,20,5,11,3,68,6,23,4,2,0,12,3,6,Hc,0.2143970588235294,0.2338333333333333,0.2307391304347826,0.2135,0.5,1,15,30,3,1
1,13,26,1,10,6.587999999999995,16,33,96,104,86,87,8.356999999999994,11.589999999999991,4.086999999999997,5.672999999999996,20,17,12,16,43,36,22,24,3,0.5,11,2.75,6,Hc,0.19434883720930232,0.3219444444444444,0.18577272727272726,0.23637499999999997,0.5,1,15,30,3,1
1,14,27,1,9,12.50499999999999,18,64,71,65,67,46,14.334999999999988,5.001999999999996,4.635999999999997,9.149999999999993,20,12,13,13,73,15,23,31,4,0.5,17,4.25,6,Hc,0.1963698630136986,0.3334666666666666,0.20156521739130434,0.29516129032258065,0.5,1,15,30,3,1
1,14,28,1,3,7.136999999999994,18,39,95,112,110,116,62.09799999999995,0.244,0.122,2.3789999999999982,20,3,2,8,286,3,2,9,5,0.5,9,2.25,6,Hc,0.21712587412587414,0.08133333333333333,0.061,0.2643333333333333,0.5,1,15,30,3,1
1,15,29,1,8,9.515999999999993,16,38,113,29,115,118,20.739999999999984,8.966999999999993,1.1589999999999994,0.427,20,14,6,2,87,36,7,2,2,0.5,11,2.75,6,Hc,0.23839080459770112,0.2490833333333333,0.16557142857142856,0.2135,0.5,1,15,30,3,1
1,15,30,1,9,10.308999999999992,20,56,68,105,64,70,12.01699999999999,4.330999999999997,1.4029999999999991,0.305,20,14,6,1,62,21,7,1,4,0.5,14,3.5,6,Hc,0.19382258064516128,0.20623809523809522,0.20042857142857143,0.305,0.5,1,15,30,3,1
1,16,31,1,6,8.661999999999994,20,55,9,5,2,119,10.918999999999992,1.646999999999999,8.844999999999994,1.646999999999999,20,7,14,5,70,7,34,6,6,0.5,20,5,6,Hc,0.15598571428571428,0.23528571428571426,0.2601470588235294,0.27449999999999997,0.5,1,15,30,3,1
1,16,32,1,5,8.356999999999994,19,40,45,98,101,106,30.07299999999998,0.244,0.6709999999999998,0.183,20,3,2,1,125,3,2,1,5,0.5,11,2.75,6,Hc,0.240584,0.08133333333333333,0.3354999999999999,0.183,0.5,1,15,30,3,1
1,17,33,1,4,16.40899999999999,20,80,50,105,108,43,24.643999999999984,13.785999999999989,1.3419999999999992,8.417999999999994,20,18,4,15,116,66,4,38,2,0,13,3.25,6,Hc,0.21244827586206894,0.20887878787878786,0.33549999999999996,0.22152631578947365,0.5,1,15,30,3,1
1,17,34,1,10,9.759999999999993,19,48,93,88,22,18,12.07799999999999,3.4159999999999973,5.367999999999996,9.820999999999993,20,11,12,16,59,15,23,47,3,0,18,4.5,6,Hc,0.20471186440677966,0.22773333333333332,0.23339130434782607,0.20895744680851064,0.5,1,15,30,3,1
1,1,1,0,2,11.89499999999999,19,56,50,24,98,23,17.628999999999987,7.807999999999994,0.6099999999999999,1.8909999999999987,20,16,2,7,77,37,3,10,4,0,18,4.5,6,Hc,0.22894805194805193,0.21102702702702703,0.20333333333333334,0.1891,0.5,1,15,30,3,2
1,1,2,0,9,10.552999999999992,19,57,63,69,65,80,16.530999999999988,1.1589999999999994,5.245999999999996,1.463999999999999,20,5,14,3,87,6,18,5,4,0.5,15,3.75,6,Hc,0.19001149425287356,0.19316666666666665,0.2914444444444444,0.29279999999999995,0.5,1,15,30,3,2
1,2,3,0,6,10.430999999999992,18,46,12,50,113,88,12.19999999999999,6.770999999999995,4.879999999999996,4.208999999999997,20,16,11,12,56,33,18,18,6,0,15,3.75,6,Hc,0.21785714285714283,0.20518181818181816,0.2711111111111111,0.2338333333333333,0.5,1,15,30,3,2
1,2,4,0,7,11.162999999999991,18,47,23,68,101,29,18.787999999999986,1.2199999999999993,3.537999999999997,5.855999999999995,20,5,11,11,75,5,16,24,6,0,17,4.25,6,Hc,0.25050666666666666,0.244,0.22112499999999996,0.24399999999999997,0.5,1,15,30,3,2
1,3,5,0,3,21.776999999999983,20,106,36,100,88,51,24.52199999999998,1.3419999999999992,2.0739999999999985,5.550999999999996,20,3,7,14,114,4,8,22,5,0,14,3.5,6,Hc,0.21510526315789472,0.3354999999999999,0.25925,0.2523181818181818,0.5,1,15,30,3,2
1,3,6,0,9,4.6969999999999965,14,23,2,64,62,71,24.94899999999998,0.6709999999999998,1.8909999999999987,1.646999999999999,20,4,7,8,97,4,7,13,4,0.5,18,4.5,6,Hc,0.2572061855670103,0.16775,0.27014285714285713,0.1266923076923077,0.5,1,15,30,3,2
1,4,7,0,10,11.77299999999999,20,51,101,57,95,49,19.214999999999986,0.6099999999999999,0.5489999999999999,0.5489999999999999,20,3,3,2,80,3,3,2,3,0,13,3.25,6,Hc,0.24018749999999997,0.20333333333333334,0.183,0.27449999999999997,0.5,1,15,30,3,2
1,4,8,0,8,9.576999999999993,18,43,111,25,118,31,11.284999999999991,1.7079999999999989,2.8669999999999978,0.6709999999999998,20,2,9,2,50,3,11,2,2,0,14,3.5,6,Hc,0.22569999999999998,0.5693333333333332,0.2606363636363636,0.3355,0.5,1,15,30,3,2
1,5,9,0,10,10.125999999999992,18,46,88,111,32,112,16.10399999999999,9.393999999999993,4.452999999999997,2.805999999999998,20,19,10,10,74,40,15,13,3,0,12,3,6,Hc,0.2176216216216216,0.23485,0.2968666666666666,0.21584615384615383,0.5,1,15,30,3,2
1,5,10,0,2,8.112999999999994,17,38,54,51,49,23,11.040999999999991,2.622999999999998,4.818999999999996,9.637999999999993,20,9,12,16,51,9,17,37,4,0.5,18,4.5,6,Hc,0.21649019607843137,0.2914444444444444,0.2834705882352941,0.2604864864864864,0.5,1,15,30,3,2
1,6,11,1,10,7.502999999999994,17,31,96,93,90,14,10.247999999999992,10.064999999999992,3.2329999999999974,3.903999999999997,20,18,11,13,47,38,17,19,3,0.5,15,3.75,6,Hc,0.21804255319148935,0.26486842105263153,0.19017647058823528,0.2054736842105263,0.5,1,15,30,3,2
1,6,12,1,9,8.295999999999994,19,49,71,2,7,6,28.05999999999998,1.8299999999999987,7.380999999999994,8.295999999999994,20,8,15,16,140,9,32,41,4,0.5,22,5.5,6,Hc,0.20042857142857143,0.20333333333333334,0.23065624999999995,0.20234146341463413,0.5,1,15,30,3,2
1,7,13,1,10,9.942999999999993,19,44,85,91,28,29,21.044999999999984,0.183,4.818999999999996,4.208999999999997,20,1,12,11,96,1,15,18,3,0,16,4,6,Hc,0.21921875,0.183,0.32126666666666664,0.2338333333333333,0.5,1,15,30,3,2
1,7,14,1,5,7.380999999999994,19,32,44,37,39,40,7.746999999999994,6.770999999999995,1.0979999999999994,11.040999999999991,20,15,9,15,34,39,9,43,5,1,60,5,6,Hc,0.22785294117647056,0.17361538461538462,0.122,0.2567674418604651,0.5,1,15,30,3,2
1,8,15,1,5,4.6969999999999965,14,34,89,43,93,96,16.10399999999999,0.7929999999999997,1.0979999999999994,5.611999999999996,20,3,5,12,85,5,5,19,5,0.5,14,3.5,6,Hc,0.18945882352941176,0.1586,0.2196,0.29536842105263156,0.5,1,15,30,3,2
1,8,16,1,1,8.722999999999994,17,45,74,50,22,78,8.783999999999994,14.822999999999988,0.9759999999999995,2.8669999999999978,18,17,3,7,46,61,4,10,3,0,16,4,6,Hc,0.19095652173913044,0.24299999999999997,0.244,0.28669999999999995,0.5,1,15,30,3,2
1,9,17,1,9,7.563999999999994,20,41,62,87,63,86,23.48499999999998,1.2809999999999993,0.5489999999999999,1.4029999999999991,20,5,1,5,103,6,1,5,4,0,14,3.5,6,Hc,0.22800970873786405,0.2135,0.5489999999999999,0.2805999999999999,0.5,1,15,30,3,2
1,9,18,1,3,10.674999999999992,19,53,30,51,55,104,15.31099999999999,19.702999999999985,1.4029999999999991,4.391999999999997,20,18,7,11,72,70,10,19,5,0,15,3.75,6,Hc,0.21265277777777777,0.28147142857142854,0.1403,0.2311578947368421,0.5,1,15,30,3,2
1,10,19,1,3,7.380999999999994,18,38,31,35,119,86,10.979999999999992,0.488,3.842999999999997,0.244,20,3,10,1,60,3,13,1,5,0,15,3.75,6,Hc,0.183,0.16266666666666665,0.29561538461538456,0.244,0.5,1,15,30,3,2
1,10,20,1,5,5.367999999999996,16,31,43,7,80,42,9.576999999999993,7.197999999999994,1.8909999999999987,0.061,20,14,7,1,48,30,9,1,5,0,19,4.75,6,Hc,0.19952083333333331,0.2399333333333333,0.21011111111111108,0.061,0.5,1,15,30,3,2
1,11,21,1,5,11.467999999999991,20,56,87,42,91,13,16.04299999999999,2.0739999999999985,1.0979999999999994,3.537999999999997,20,9,4,7,76,15,5,10,5,0,17,4.25,6,Hc,0.2110921052631579,0.13826666666666668,0.2196,0.3537999999999999,0.5,1,15,30,3,2
1,11,22,1,3,7.441999999999994,16,38,35,32,7,68,14.029999999999989,12.32199999999999,14.090999999999989,4.879999999999996,20,18,18,12,69,61,47,18,5,0,20,5,6,Hc,0.20333333333333334,0.20199999999999999,0.29980851063829783,0.2711111111111111,0.5,1,15,30,3,2
1,12,23,1,8,5.7949999999999955,15,27,120,10,6,117,11.223999999999991,21.776999999999983,16.652999999999988,0.244,20,18,16,2,52,91,70,2,2,0,16,4,6,Hc,0.21584615384615383,0.23930769230769228,0.23789999999999997,0.122,0.5,1,15,30,3,2
1,12,24,1,5,14.090999999999989,19,57,38,46,42,20,16.34799999999999,4.025999999999997,0.427,2.805999999999998,20,11,4,10,68,21,5,13,5,0.5,21,5.25,6,Hc,0.24041176470588232,0.1917142857142857,0.0854,0.21584615384615383,0.5,1,15,30,3,2
1,13,25,1,5,10.369999999999992,17,41,23,43,42,38,13.35899999999999,2.622999999999998,2.622999999999998,2.9889999999999977,20,10,10,9,50,12,12,13,5,0.5,21,5.25,6,Hc,0.26718,0.21858333333333332,0.21858333333333332,0.2299230769230769,0.5,1,15,30,3,2
1,13,26,1,8,9.576999999999993,19,47,120,110,113,91,11.650999999999991,0.6709999999999998,0.061,2.683999999999998,20,2,1,6,55,2,1,7,2,0.5,9,2.25,6,Hc,0.21183636363636363,0.3354999999999999,0.061,0.3834285714285714,0.5,1,15,30,3,2
1,14,27,1,9,7.380999999999994,17,40,112,96,64,62,8.783999999999994,1.8299999999999987,4.330999999999997,1.0369999999999995,20,6,12,4,46,11,19,4,4,0,13,3.25,6,Hc,0.1909565217391304,0.16636363636363635,0.22794736842105262,0.25925,0.5,1,15,30,3,2
1,14,28,1,3,7.9299999999999935,18,34,31,15,106,107,9.698999999999993,7.563999999999994,16.835999999999988,16.835999999999988,20,15,16,17,45,35,66,60,5,0,15,3.75,6,Hc,0.21553333333333333,0.2161142857142857,0.25509090909090903,0.28059999999999996,0.5,1,15,30,3,2
1,15,29,1,10,11.77299999999999,19,53,88,120,119,89,15.737999999999987,7.8689999999999936,1.585999999999999,0.6709999999999998,20,17,6,2,74,35,7,2,3,0,10,2.5,6,Hc,0.21267567567567566,0.2248285714285714,0.22657142857142853,0.3354999999999999,0.5,1,15,30,3,2
1,15,30,1,1,7.502999999999994,15,35,82,61,108,104,14.822999999999988,3.1109999999999975,1.7079999999999989,0.061,20,10,7,1,62,17,8,1,3,0,11,2.75,6,Hc,0.2390806451612903,0.183,0.2135,0.061,0.5,1,15,30,3,2
1,16,31,1,7,7.807999999999994,18,34,17,13,106,45,13.907999999999989,13.663999999999989,0.061,0.488,20,17,1,4,68,54,1,4,6,0,19,4.75,6,Hc,0.20452941176470588,0.253037037037037,0.061,0.122,0.5,1,15,30,3,2
1,16,32,1,6,4.269999999999997,13,22,5,86,113,112,17.445999999999987,0.183,1.4029999999999991,0.7319999999999998,20,1,4,3,85,1,5,4,6,0,13,3.25,6,Hc,0.2052470588235294,0.183,0.2806,0.183,0.5,1,15,30,3,2
1,17,33,1,3,10.979999999999992,20,54,31,28,93,90,12.74899999999999,3.842999999999997,0.9149999999999996,2.622999999999998,20,10,4,7,61,17,6,10,5,0,16,4,6,Hc,0.209,0.22605882352941176,0.1525,0.2623,0.5,1,15,30,3,2
1,17,34,1,2,12.62699999999999,19,50,59,55,51,38,16.530999999999988,0.183,4.269999999999997,0.9759999999999995,20,2,11,6,66,2,23,6,4,0.5,17,4.25,6,Hc,0.25046969696969695,0.0915,0.18565217391304348,0.16266666666666665,0.5,1,15,30,3,2
1,1,1,0,9,12.44399999999999,20,60,6,1,67,68,25.74199999999998,11.650999999999991,0.183,0.061,20,16,1,1,118,43,1,1,4,0,20,5,6,Hc,0.21815254237288134,0.270953488372093,0.183,0.061,0.5,1,15,30,3,3
1,1,2,0,4,12.93199999999999,19,57,106,59,19,17,24.21699999999998,1.524999999999999,2.0129999999999986,2.3789999999999982,20,4,8,8,99,4,8,10,2,0,18,4.5,6,Hc,0.2446161616161616,0.3812499999999999,0.251625,0.23789999999999994,0.5,1,15,30,3,3
1,2,3,0,9,15.615999999999987,20,77,92,71,61,18,23.118999999999982,0.122,5.184999999999996,0.305,20,2,9,1,116,2,15,1,4,0,17,4.25,6,Hc,0.199301724137931,0.061,0.3456666666666666,0.305,0.5,1,15,30,3,3
1,2,4,0,6,5.489999999999996,14,20,1,9,8,5,22.325999999999983,0.061,1.524999999999999,18.909999999999986,20,1,5,17,106,1,6,80,6,1,72,6,6,Hc,0.21062264150943394,0.061,0.2541666666666666,0.23637499999999997,0.5,1,15,30,3,3
1,3,5,0,5,10.003999999999992,20,51,15,47,48,41,13.17599999999999,1.9519999999999986,1.7689999999999988,11.77299999999999,20,6,6,15,65,7,6,33,5,0.5,21,5.25,6,Hc,0.20270769230769228,0.27885714285714286,0.29483333333333334,0.3567575757575757,0.5,1,15,30,3,3
1,3,6,0,8,9.149999999999993,17,35,120,119,55,118,13.480999999999991,0.061,9.698999999999993,1.2199999999999993,20,1,16,6,50,1,29,6,2,0.5,10,2.5,6,Hc,0.26961999999999997,0.061,0.3344482758620689,0.20333333333333334,0.5,1,15,30,3,3
1,4,7,0,8,11.71199999999999,18,54,119,111,115,118,17.933999999999987,3.9649999999999967,1.7689999999999988,0.122,20,12,7,1,78,17,8,1,2,1,24,2,6,Hc,0.2299230769230769,0.23323529411764704,0.221125,0.122,0.5,1,15,30,3,3
1,4,8,0,5,10.918999999999992,16,47,39,40,88,13,14.517999999999988,5.306999999999996,0.183,1.524999999999999,20,11,2,7,61,24,2,9,5,0,19,4.75,6,Hc,0.238,0.221125,0.0915,0.16944444444444443,0.5,1,15,30,3,3
1,5,9,0,8,5.7949999999999955,15,32,117,49,35,93,10.918999999999992,3.476999999999997,0.6099999999999999,4.940999999999996,20,8,1,13,52,9,1,19,2,0,14,3.5,6,Hc,0.20998076923076922,0.38633333333333325,0.6099999999999999,0.26005263157894737,0.5,1,15,30,3,3
1,5,10,0,1,9.393999999999993,17,50,77,80,63,76,11.040999999999991,1.2809999999999993,6.8319999999999945,0.5489999999999999,20,5,13,4,61,5,20,4,3,0.5,13,3.25,6,Hc,0.181,0.2562,0.34159999999999996,0.13724999999999998,0.5,1,15,30,3,3
1,6,11,1,9,5.245999999999996,15,27,61,72,64,65,12.07799999999999,2.9279999999999977,3.0499999999999976,0.427,20,9,7,2,57,11,10,2,4,1,48,4,6,Hc,0.21189473684210525,0.26618181818181813,0.305,0.2135,0.5,1,15,30,3,3
1,6,12,1,1,10.613999999999992,18,63,29,81,80,78,16.40899999999999,3.1719999999999975,4.208999999999997,0.6709999999999998,20,12,14,2,79,16,20,2,3,0.5,14,3.5,6,Hc,0.20770886075949369,0.19824999999999998,0.21045,0.3354999999999999,0.5,1,15,30,3,3
1,7,13,1,4,9.332999999999993,17,44,99,108,95,91,11.162999999999991,1.4029999999999991,4.635999999999997,5.489999999999996,20,7,11,11,53,9,16,16,2,0,10,2.5,6,Hc,0.21062264150943394,0.15588888888888888,0.28974999999999995,0.3431249999999999,0.5,1,15,30,3,3
1,7,14,1,8,7.746999999999994,15,33,119,120,111,13,17.323999999999987,1.7689999999999988,4.818999999999996,0.488,20,6,14,3,72,8,20,3,2,0.5,12,3,6,Hc,0.24061111111111108,0.22112499999999996,0.24095,0.16266666666666665,0.5,1,15,30,3,3
1,8,15,1,7,7.563999999999994,19,40,23,22,19,17,7.9299999999999935,13.05399999999999,0.305,2.744999999999998,20,17,2,7,42,42,2,10,6,1,72,6,6,Hc,0.1888095238095238,0.31080952380952376,0.1525,0.27449999999999997,0.5,1,15,30,3,3
1,8,16,1,6,5.7339999999999955,13,24,1,10,4,33,16.22599999999999,0.244,2.805999999999998,1.3419999999999992,20,3,7,1,63,3,11,1,6,0.5,23,5.75,6,Hc,0.25755555555555554,0.08133333333333333,0.2550909090909091,1.3419999999999992,0.5,1,15,30,3,3
1,9,17,1,1,9.698999999999993,17,42,79,75,82,100,13.29799999999999,10.491999999999992,5.245999999999996,4.025999999999997,20,18,14,11,57,42,27,19,3,0.5,11,2.75,6,Hc,0.23329824561403506,0.2498095238095238,0.19429629629629627,0.21189473684210525,0.5,1,15,30,3,3
1,9,18,1,3,6.404999999999995,16,33,32,119,3,93,13.17599999999999,57.339999999999954,5.977999999999995,0.061,20,19,15,1,64,257,30,1,5,0,16,4,6,Hc,0.205875,0.22311284046692606,0.19926666666666668,0.061,0.5,1,15,30,3,3
1,10,19,1,9,10.857999999999992,16,57,69,67,21,99,12.68799999999999,12.13899999999999,31.109999999999975,6.587999999999995,20,18,18,13,68,52,116,27,4,0,16,4,6,Hc,0.18658823529411764,0.23344230769230767,0.2681896551724138,0.244,0.5,1,15,30,3,3
1,10,20,1,6,8.966999999999993,19,55,10,9,5,8,17.323999999999987,0.061,4.208999999999997,6.343999999999995,20,1,11,14,92,1,16,33,6,1,72,6,6,Hc,0.18830434782608693,0.061,0.2630625,0.19224242424242421,0.5,1,15,30,3,3
1,11,21,1,1,6.8929999999999945,16,34,78,73,84,101,9.027999999999993,0.5489999999999999,2.8669999999999978,10.064999999999992,20,4,10,16,40,5,15,46,3,0.5,11,2.75,6,Hc,0.22569999999999998,0.1098,0.19113333333333332,0.21880434782608693,0.5,1,15,30,3,3
1,11,22,1,2,5.611999999999996,16,31,52,49,88,55,8.783999999999994,8.051999999999994,6.160999999999995,2.805999999999998,20,16,13,11,44,32,19,14,4,0.5,15,3.75,6,Hc,0.19963636363636364,0.251625,0.32426315789473675,0.20042857142857143,0.5,1,15,30,3,3
1,12,23,1,4,4.6969999999999965,15,23,15,46,87,94,104.5540000000041,0.7929999999999997,0.061,0.122,20,4,1,2,430,5,1,2,2,0,17,4.25,6,Hc,0.2431488372093023,0.1586,0.061,0.061,0.5,1,15,30,3,3
1,12,24,1,8,7.380999999999994,19,43,115,113,118,117,8.051999999999994,6.343999999999995,0.061,10.857999999999992,20,15,1,16,46,25,1,44,2,1,24,2,6,Hc,0.17504347826086958,0.25376,0.061,0.24677272727272725,0.5,1,15,30,3,3
1,13,25,1,3,9.515999999999993,17,44,31,33,29,19,28.60899999999998,4.330999999999997,1.3419999999999992,0.366,20,13,4,4,124,19,4,4,5,0.5,21,5.25,6,Hc,0.23071774193548386,0.22794736842105262,0.33549999999999996,0.0915,0.5,1,15,30,3,3
1,13,26,1,9,11.71199999999999,18,58,72,98,62,47,17.994999999999987,20.556999999999984,1.463999999999999,1.7689999999999988,20,19,6,7,85,75,8,8,4,0,15,3.75,6,Hc,0.21170588235294116,0.2740933333333333,0.183,0.221125,0.5,1,15,30,3,3
1,14,27,1,4,6.770999999999995,18,42,30,103,108,105,24.33899999999998,0.244,1.463999999999999,0.305,20,2,9,2,110,2,11,2,2,0.5,11,2.75,6,Hc,0.22126363636363633,0.122,0.1330909090909091,0.1525,0.5,1,15,30,3,3
1,14,28,1,10,7.807999999999994,16,41,88,64,90,94,10.125999999999992,3.720999999999997,2.0129999999999986,0.183,20,9,8,2,49,14,9,2,3,0.5,13,3.25,6,Hc,0.2066530612244898,0.26578571428571424,0.22366666666666662,0.0915,0.5,1,15,30,3,3
1,15,29,1,6,2.622999999999998,10,14,1,2,11,9,5.977999999999995,0.7319999999999998,0.183,4.940999999999996,20,3,2,11,32,3,2,20,6,1,72,6,6,Hc,0.1868125,0.244,0.0915,0.24704999999999996,0.5,1,15,30,3,3
1,15,30,1,1,13.968999999999989,19,62,81,73,98,30,16.16499999999999,5.367999999999996,4.513999999999997,2.622999999999998,20,13,12,12,70,33,21,14,3,0,13,3.25,6,Hc,0.2309285714285714,0.16266666666666665,0.21495238095238095,0.18735714285714286,0.5,1,15,30,3,3
1,16,31,1,6,8.173999999999994,18,32,10,5,2,9,18.360999999999986,6.221999999999995,1.585999999999999,3.476999999999997,20,13,8,12,80,22,9,15,6,1,72,6,6,Hc,0.22951249999999998,0.2828181818181818,0.17622222222222222,0.23179999999999998,0.5,1,15,30,3,3
1,16,32,1,5,9.393999999999993,19,35,44,39,47,89,11.95599999999999,2.8669999999999978,3.1719999999999975,0.122,20,11,9,1,45,14,11,1,5,0.5,18,4.5,6,Hc,0.26568888888888886,0.20478571428571427,0.2883636363636364,0.122,0.5,1,15,30,3,3
1,17,33,1,8,7.075999999999994,15,36,114,116,119,66,9.637999999999993,4.574999999999997,4.330999999999997,1.4029999999999991,20,10,11,3,46,20,21,3,2,0.5,10,2.5,6,Hc,0.20952173913043476,0.22874999999999998,0.20623809523809522,0.46766666666666645,0.5,1,15,30,3,3
