Subject,Round,Phase,afterbreak,Schema,Schema_RT,Schema_OB,Schema_AS,Cho_1,Cho_2,Cho_3,Cho_4,RT_1,RT_2,RT_3,RT_4,OB_1,OB_2,OB_3,OB_4,AS_1,AS_2,AS_3,AS_4,schema_payoff,AC,performance,payoff,breakR,type,dwellmean_1,dwellmean_2,dwellmean_3,dwellmean_4,param_w,param_Phi,param_thres_item_final,param_thres_schema,param_theta_shift,rep
1,1,1,0,8,13.41999999999999,18,64,119,115,28,111,13.846999999999989,0.305,3.1109999999999975,1.463999999999999,20,2,10,6,66,2,14,6,2,0.5,17,2.75,6,Lc,0.2098030303030303,0.1525,0.2222142857142857,0.244,0.5,20,10,30,3,1
1,1,2,0,6,19.031999999999986,20,87,7,1,9,12,21.532999999999983,6.770999999999995,1.2199999999999993,0.305,20,13,6,2,96,21,6,2,6,1,72,6,6,Lc,0.22430208333333332,0.3224285714285714,0.2033333333333333,0.1525,0.5,20,10,30,3,1
1,2,3,0,2,15.310999999999988,19,61,58,23,15,50,17.750999999999987,3.598999999999997,2.8669999999999978,1.463999999999999,20,13,10,7,71,20,12,7,4,0,20,5,6,Lc,0.2500140845070422,0.17995,0.23891666666666664,0.20914285714285713,0.5,20,10,30,3,1
1,2,4,0,6,5.245999999999996,12,26,4,1,5,30,7.136999999999995,3.2329999999999974,5.306999999999996,0.7319999999999998,18,9,13,4,32,10,22,4,6,0.5,41,5.75,6,Lc,0.22303125,0.3233,0.24122727272727268,0.183,0.5,20,10,30,3,1
1,3,5,0,9,12.74899999999999,16,67,68,63,43,38,13.846999999999989,3.476999999999997,0.488,4.269999999999997,18,8,3,13,69,8,3,21,4,0,18,4.5,6,Lc,0.20068115942028983,0.4346249999999999,0.16266666666666665,0.2033333333333333,0.5,20,10,30,3,1
1,3,6,0,7,15.310999999999988,13,60,19,14,24,22,17.933999999999987,0.7319999999999998,0.244,1.646999999999999,20,3,1,10,71,5,1,11,6,1,72,6,6,Lc,0.2525915492957746,0.1464,0.244,0.14972727272727274,0.5,20,10,30,3,1
1,4,7,0,7,5.489999999999996,14,28,15,16,23,20,10.613999999999992,1.585999999999999,0.366,9.881999999999993,20,7,4,15,48,8,4,37,6,1,72,6,6,Lc,0.221125,0.19824999999999998,0.0915,0.26708108108108103,0.5,20,10,30,3,1
1,4,8,0,3,13.41999999999999,11,51,31,49,36,88,14.944999999999988,4.086999999999997,0.061,1.8909999999999987,17,13,1,6,58,17,1,7,5,0,17,4.25,6,Lc,0.2576724137931034,0.24041176470588235,0.061,0.27014285714285713,0.5,20,10,30,3,1
1,5,9,0,9,17.384999999999987,18,91,62,66,67,104,18.055999999999987,2.0739999999999985,1.3419999999999992,0.488,20,8,6,2,97,9,7,2,4,0.5,26,3.5,6,Lc,0.1861443298969072,0.23044444444444442,0.1917142857142857,0.244,0.5,20,10,30,3,1
1,5,10,0,5,12.38299999999999,14,73,40,6,56,60,14.029999999999989,31.353999999999974,9.698999999999993,0.122,19,19,16,1,80,136,48,1,5,0,19,4.75,6,Lc,0.175375,0.2305441176470588,0.20206249999999998,0.122,0.5,20,10,30,3,1
1,6,11,1,6,4.452999999999997,12,31,3,12,7,56,5.977999999999996,1.2809999999999993,0.8539999999999996,5.855999999999995,20,6,7,14,41,7,7,27,6,0.5,40,5.5,6,Lc,0.14580487804878048,0.183,0.122,0.21688888888888885,0.5,20,10,30,3,1
1,6,12,1,7,8.295999999999994,10,45,20,19,22,98,9.759999999999993,0.7929999999999997,2.9889999999999977,2.500999999999998,15,4,8,6,51,4,12,10,6,0.5,38,5,6,Lc,0.19137254901960785,0.19824999999999998,0.2490833333333333,0.2501,0.5,20,10,30,3,1
1,7,13,1,6,10.918999999999992,19,60,1,2,6,100,12.50499999999999,0.061,0.7929999999999997,2.683999999999998,20,1,5,9,66,1,5,11,6,0.5,38,5,6,Lc,0.18946969696969695,0.061,0.1586,0.24399999999999997,0.5,20,10,30,3,1
1,7,14,1,3,11.650999999999991,18,63,33,29,71,35,11.95599999999999,0.6099999999999999,3.842999999999997,1.2199999999999993,20,3,9,5,65,3,12,5,5,0.5,34,4.75,6,Lc,0.18393846153846152,0.20333333333333334,0.32025,0.244,0.5,20,10,30,3,1
1,8,15,1,7,9.149999999999993,18,57,18,19,21,34,9.393999999999993,1.2809999999999993,0.9759999999999995,4.574999999999997,20,7,4,11,59,7,4,21,6,0.5,41,5.75,6,Lc,0.15922033898305085,0.183,0.244,0.21785714285714283,0.5,20,10,30,3,1
1,8,16,1,6,9.271999999999993,16,47,2,3,12,90,10.491999999999992,3.598999999999997,0.427,2.805999999999998,20,10,5,7,54,15,5,9,6,0.5,39,5.25,6,Lc,0.1942962962962963,0.2399333333333333,0.0854,0.31177777777777776,0.5,20,10,30,3,1
1,9,17,1,6,11.467999999999991,14,44,11,4,60,6,11.77299999999999,1.0979999999999994,5.367999999999996,3.659999999999997,16,2,10,10,46,2,27,17,6,0.5,40,5.5,6,Lc,0.2559347826086956,0.5489999999999999,0.1988148148148148,0.2152941176470588,0.5,20,10,30,3,1
1,9,18,1,1,7.8689999999999936,14,34,73,83,77,63,8.356999999999994,1.0979999999999994,3.476999999999997,8.173999999999994,18,6,12,16,38,6,14,40,3,0.5,22,3.25,6,Lc,0.21992105263157893,0.183,0.24835714285714283,0.20434999999999998,0.5,20,10,30,3,1
1,10,19,1,3,26.16899999999998,13,110,34,29,36,111,26.29099999999998,4.086999999999997,7.319999999999994,2.744999999999998,14,11,15,6,111,18,36,8,5,0.5,32,4.25,6,Lc,0.23685585585585583,0.22705555555555557,0.2033333333333333,0.3431249999999999,0.5,20,10,30,3,1
1,10,20,1,6,7.746999999999994,16,44,1,5,106,4,8.966999999999993,1.585999999999999,0.305,2.622999999999998,20,6,1,10,50,6,1,14,6,0.5,38,5,6,Lc,0.17934,0.2643333333333333,0.305,0.18735714285714286,0.5,20,10,30,3,1
1,11,21,1,7,14.944999999999988,16,67,19,17,16,23,15.554999999999987,4.147999999999997,4.086999999999997,0.9759999999999995,20,11,12,6,71,17,21,6,6,1,72,6,6,Lc,0.21908450704225352,0.244,0.1946190476190476,0.16266666666666665,0.5,20,10,30,3,1
1,11,22,1,6,8.478999999999994,14,42,11,4,9,55,10.247999999999992,0.8539999999999996,3.2939999999999974,3.598999999999997,20,4,9,9,53,4,12,12,6,0.5,40,5.5,6,Lc,0.1933584905660377,0.2135,0.27449999999999997,0.2999166666666666,0.5,20,10,30,3,1
1,12,23,1,7,13.907999999999989,20,68,21,18,17,23,14.090999999999989,0.244,5.428999999999996,2.8669999999999978,20,2,15,9,69,2,31,14,6,1,72,6,6,Lc,0.20421739130434782,0.122,0.1751290322580645,0.20478571428571427,0.5,20,10,30,3,1
1,12,24,1,9,10.613999999999992,17,58,68,65,64,8,10.674999999999992,3.476999999999997,4.086999999999997,12.07799999999999,18,6,10,16,59,10,14,53,4,0.5,30,4.5,6,Lc,0.1809322033898305,0.34769999999999995,0.2919285714285714,0.22788679245283017,0.5,20,10,30,3,1
1,13,25,1,9,31.780999999999974,12,131,66,71,37,99,33.488999999999976,0.9759999999999995,2.439999999999998,3.4159999999999973,18,7,8,6,138,7,9,9,4,0,15,3.75,6,Lc,0.2426739130434782,0.13942857142857143,0.271111111111111,0.37955555555555553,0.5,20,10,30,3,1
1,13,26,1,3,5.123999999999996,10,22,111,13,116,15,26.22999999999998,26.59599999999998,3.598999999999997,0.6709999999999998,20,19,14,5,113,96,16,5,5,0,16,4,6,Lc,0.23212389380530973,0.27704166666666663,0.22493749999999998,0.13419999999999999,0.5,20,10,30,3,1
1,14,27,1,5,38.00299999999997,14,170,37,73,40,119,38.30799999999997,4.208999999999997,2.805999999999998,4.452999999999997,16,9,11,9,172,17,14,14,5,0,15,3.75,6,Lc,0.22272093023255812,0.24758823529411758,0.20042857142857143,0.31807142857142856,0.5,20,10,30,3,1
1,14,28,1,7,13.05399999999999,14,66,19,22,17,13,13.602999999999989,1.1589999999999994,0.6709999999999998,15.432999999999987,16,6,3,17,69,6,3,68,6,1,72,6,6,Lc,0.19714492753623186,0.19316666666666665,0.22366666666666665,0.22695588235294117,0.5,20,10,30,3,1
1,15,29,1,7,11.101999999999991,20,55,20,16,46,112,15.737999999999989,0.183,0.7319999999999998,0.7929999999999997,20,1,4,3,69,1,4,3,6,0,19,4.75,6,Lc,0.2280869565217391,0.183,0.183,0.2643333333333333,0.5,20,10,30,3,1
1,15,30,1,3,3.2939999999999974,8,21,36,33,26,31,5.245999999999996,0.6709999999999998,0.9759999999999995,0.7929999999999997,19,4,6,4,35,4,6,4,5,1,60,5,6,Lc,0.1498857142857143,0.16775,0.16266666666666665,0.19824999999999998,0.5,20,10,30,3,1
1,16,31,1,5,5.245999999999996,11,25,13,40,47,24,26.22999999999998,0.244,0.6709999999999998,0.061,20,2,4,1,132,2,4,1,5,0,22,5.5,6,Lc,0.1987121212121212,0.122,0.16775,0.061,0.5,20,10,30,3,1
1,16,32,1,6,6.343999999999995,12,37,4,10,11,26,9.149999999999993,0.305,0.061,4.879999999999996,19,2,1,14,45,2,1,22,6,0.5,41,5.75,6,Lc,0.2033333333333333,0.1525,0.061,0.2218181818181818,0.5,20,10,30,3,1
1,17,33,1,10,14.578999999999988,15,73,96,94,39,89,14.700999999999988,0.6099999999999999,3.1719999999999975,0.9759999999999995,16,2,7,5,74,2,9,6,3,0.5,23,3.5,6,Lc,0.19866216216216215,0.305,0.3524444444444444,0.16266666666666665,0.5,20,10,30,3,1
1,17,34,1,7,20.068999999999985,15,87,15,14,79,16,20.739999999999984,0.5489999999999999,7.624999999999994,3.720999999999997,19,2,12,12,91,4,25,17,6,0.5,39,5.25,6,Lc,0.2279120879120879,0.13724999999999998,0.305,0.21888235294117647,0.5,20,10,30,3,1
1,18,35,1,6,8.966999999999993,16,43,2,7,3,65,9.759999999999993,9.210999999999993,0.061,1.4029999999999991,20,18,1,6,48,54,1,7,6,0.5,40,5.5,6,Lc,0.2033333333333333,0.17057407407407407,0.061,0.20042857142857143,0.5,20,10,30,3,1
1,18,36,1,5,9.393999999999993,11,43,46,38,109,37,11.83399999999999,0.8539999999999996,1.0369999999999995,6.160999999999995,20,3,3,15,55,3,4,27,5,0.5,32,4.25,6,Lc,0.21516363636363636,0.2846666666666667,0.25925,0.22818518518518516,0.5,20,10,30,3,1
1,1,1,0,4,14.761999999999988,18,74,98,102,24,96,15.432999999999987,1.524999999999999,2.9889999999999977,4.147999999999997,20,5,11,12,77,5,18,22,2,0,13,3.25,6,Lc,0.20042857142857143,0.305,0.16605555555555554,0.18854545454545452,0.5,20,10,30,3,2
1,1,2,0,9,26.96199999999998,16,117,71,110,65,35,29.950999999999976,1.3419999999999992,0.061,1.7079999999999989,20,4,1,7,125,4,1,8,4,0,15,3.75,6,Lc,0.239608,0.33549999999999996,0.061,0.2135,0.5,20,10,30,3,2
1,2,3,0,7,9.515999999999993,19,54,20,15,21,114,9.881999999999993,2.683999999999998,3.598999999999997,2.622999999999998,20,9,10,7,56,13,14,8,6,0.5,38,5,6,Lc,0.1764642857142857,0.20646153846153845,0.25707142857142856,0.32787499999999997,0.5,20,10,30,3,2
1,2,4,0,5,10.247999999999992,16,54,99,97,48,44,11.95599999999999,0.6099999999999999,0.061,0.061,20,1,1,1,60,2,1,1,5,0,14,3.5,6,Lc,0.19926666666666665,0.305,0.061,0.061,0.5,20,10,30,3,2
1,3,5,0,7,11.71199999999999,17,50,20,18,22,23,13.54199999999999,0.427,13.41999999999999,1.1589999999999994,20,1,18,7,62,1,58,7,6,1,72,6,6,Lc,0.21841935483870964,0.427,0.23137931034482756,0.16557142857142856,0.5,20,10,30,3,2
1,3,6,0,6,18.177999999999987,19,87,8,6,2,9,18.543999999999986,0.183,13.35899999999999,3.537999999999997,20,1,15,11,90,1,53,18,6,1,72,6,6,Lc,0.20604444444444442,0.183,0.2520566037735849,0.19655555555555554,0.5,20,10,30,3,2
1,4,7,0,6,11.83399999999999,19,47,3,11,77,67,11.89499999999999,0.183,6.221999999999995,8.173999999999994,20,2,13,16,48,3,28,37,6,0,19,4.75,6,Lc,0.24781249999999996,0.061,0.2222142857142857,0.2209189189189189,0.5,20,10,30,3,2
1,4,8,0,10,18.238999999999987,11,71,95,40,37,19,20.739999999999984,0.061,6.465999999999995,1.9519999999999986,19,1,14,8,79,1,24,8,3,0,19,4.75,6,Lc,0.2625316455696202,0.061,0.26941666666666664,0.244,0.5,20,10,30,3,2
1,5,9,0,3,24.09499999999998,14,117,34,36,29,35,24.21699999999998,0.6709999999999998,1.646999999999999,0.7319999999999998,15,3,6,3,118,4,6,3,5,1,60,5,6,Lc,0.20522881355932202,0.16775,0.27449999999999997,0.24399999999999997,0.5,20,10,30,3,2
1,5,10,0,7,11.040999999999991,19,53,23,19,103,89,13.724999999999989,0.183,1.1589999999999994,1.8909999999999987,20,2,3,7,66,2,3,8,6,0,17,4.25,6,Lc,0.20795454545454545,0.0915,0.3863333333333333,0.23637499999999997,0.5,20,10,30,3,2
1,6,11,1,9,8.661999999999994,18,41,71,61,72,64,12.38299999999999,0.061,3.9649999999999967,0.6099999999999999,20,1,9,3,57,1,10,3,4,1,48,4,6,Lc,0.21724561403508771,0.061,0.3964999999999999,0.20333333333333334,0.5,20,10,30,3,2
1,6,12,1,3,6.709999999999995,14,28,36,27,28,25,7.075999999999994,0.244,0.061,0.122,16,1,1,1,30,1,1,1,5,1,60,5,6,Lc,0.23586666666666664,0.244,0.061,0.122,0.5,20,10,30,3,2
1,7,13,1,6,8.112999999999994,16,40,3,1,6,49,10.125999999999992,8.539999999999994,2.683999999999998,3.2329999999999974,20,15,9,9,50,41,12,16,6,0.5,40,5.5,6,Lc,0.20252,0.20829268292682926,0.22366666666666665,0.20206249999999998,0.5,20,10,30,3,2
1,7,14,1,5,7.441999999999994,16,46,92,110,14,113,31.475999999999974,10.308999999999992,1.4029999999999991,3.4159999999999973,20,19,4,9,154,52,5,11,5,0,13,3.25,6,Lc,0.20438961038961037,0.19824999999999998,0.28059999999999996,0.31054545454545446,0.5,20,10,30,3,2
1,8,15,1,3,6.465999999999995,19,38,32,30,68,33,6.648999999999995,4.7579999999999965,11.589999999999991,2.805999999999998,20,15,17,11,40,25,40,15,5,0.5,34,4.75,6,Lc,0.166225,0.19032,0.28974999999999995,0.18706666666666666,0.5,20,10,30,3,2
1,8,16,1,6,8.539999999999994,17,47,3,2,11,12,12.992999999999991,0.9759999999999995,0.6709999999999998,5.184999999999996,20,7,3,13,72,7,3,20,6,1,72,6,6,Lc,0.18045833333333333,0.13942857142857143,0.22366666666666665,0.25925,0.5,20,10,30,3,2
1,9,17,1,8,29.279999999999976,15,141,119,117,118,68,31.963999999999974,2.1959999999999984,0.061,3.9649999999999967,20,8,1,12,157,9,1,21,2,0.5,16,2.5,6,Lc,0.20359235668789805,0.24399999999999997,0.061,0.18880952380952382,0.5,20,10,30,3,2
1,9,18,1,7,10.308999999999992,13,48,15,14,20,21,12.74899999999999,0.488,0.366,2.744999999999998,20,5,2,8,59,5,2,10,6,1,72,6,6,Lc,0.21608474576271186,0.09759999999999999,0.183,0.27449999999999997,0.5,20,10,30,3,2
1,10,19,1,3,20.129999999999985,16,89,32,61,15,30,25.61999999999998,2.9279999999999977,5.611999999999996,0.5489999999999999,20,7,16,4,109,7,26,4,5,0,20,5,6,Lc,0.235045871559633,0.4182857142857142,0.21584615384615383,0.13724999999999998,0.5,20,10,30,3,2
1,10,20,1,2,11.589999999999991,13,61,49,87,91,96,11.650999999999991,14.639999999999988,10.430999999999992,0.488,14,18,17,4,62,53,45,5,4,0.5,22,3.25,6,Lc,0.18791935483870967,0.2762264150943396,0.23179999999999998,0.09759999999999999,0.5,20,10,30,3,2
1,11,21,1,6,6.8929999999999945,17,44,7,12,11,32,7.197999999999994,0.061,0.244,6.038999999999995,19,1,2,11,46,1,2,17,6,0.5,41,5.75,6,Lc,0.1564782608695652,0.061,0.122,0.355235294117647,0.5,20,10,30,3,2
1,11,22,1,7,18.360999999999986,15,80,14,63,22,71,19.946999999999985,2.500999999999998,0.305,2.500999999999998,20,12,2,6,86,14,2,11,6,0,20,5,6,Lc,0.23194186046511625,0.17864285714285713,0.1525,0.22736363636363635,0.5,20,10,30,3,2
1,12,23,1,1,3.2939999999999974,7,17,77,74,75,83,3.5989999999999975,1.8299999999999987,1.2199999999999993,3.842999999999997,10,8,4,11,20,8,4,27,3,1,36,3,6,Lc,0.17995,0.22874999999999995,0.30499999999999994,0.14233333333333334,0.5,20,10,30,3,2
1,12,24,1,10,9.271999999999993,16,40,1,94,88,41,14.76199999999999,0.061,1.1589999999999994,2.8669999999999978,20,1,7,7,63,1,9,12,3,0,17,4.25,6,Lc,0.23431746031746029,0.061,0.12877777777777777,0.23891666666666664,0.5,20,10,30,3,2
1,13,25,1,3,11.040999999999991,16,51,32,36,25,29,12.32199999999999,3.659999999999997,0.488,0.366,20,10,4,1,57,11,4,2,5,1,60,5,6,Lc,0.21617543859649122,0.3327272727272727,0.122,0.183,0.5,20,10,30,3,2
1,13,26,1,4,9.942999999999993,15,38,100,101,97,55,10.064999999999992,2.0739999999999985,1.4029999999999991,3.659999999999997,16,5,3,10,39,6,3,19,2,0.5,16,2.5,6,Lc,0.25807692307692304,0.34566666666666657,0.46766666666666645,0.1926315789473684,0.5,20,10,30,3,2
1,14,27,1,7,18.116999999999987,17,82,20,19,65,23,20.556999999999984,10.369999999999992,0.122,2.0129999999999986,20,17,1,10,94,46,1,10,6,0.5,40,5.5,6,Lc,0.2186914893617021,0.22543478260869562,0.122,0.20129999999999998,0.5,20,10,30,3,2
1,14,28,1,8,23.54599999999998,15,107,115,112,87,95,25.31499999999998,0.5489999999999999,4.452999999999997,4.147999999999997,20,2,12,15,115,3,23,23,2,0,10,2.5,6,Lc,0.22013043478260866,0.183,0.19360869565217392,0.18034782608695651,0.5,20,10,30,3,2
1,15,29,1,3,22.020999999999983,15,88,31,33,27,29,22.752999999999982,4.208999999999997,2.0129999999999986,3.842999999999997,19,11,6,12,92,16,7,21,5,1,60,5,6,Lc,0.24731521739130433,0.2630625,0.28757142857142853,0.183,0.5,20,10,30,3,2
1,15,30,1,6,16.10399999999999,10,68,9,4,6,63,17.445999999999987,4.818999999999996,0.122,5.123999999999996,16,12,1,14,75,19,1,20,6,0.5,40,5.5,6,Lc,0.2326133333333333,0.25363157894736843,0.122,0.2562,0.5,20,10,30,3,2
1,16,31,1,2,6.099999999999995,16,36,50,56,59,101,9.271999999999993,1.3419999999999992,1.463999999999999,6.160999999999995,20,6,5,16,48,7,6,34,4,0.5,26,3.5,6,Lc,0.19316666666666665,0.1917142857142857,0.24399999999999994,0.18120588235294116,0.5,20,10,30,3,2
1,16,32,1,8,15.066999999999988,17,59,112,41,118,111,16.22599999999999,3.476999999999997,2.9279999999999977,0.6709999999999998,20,13,7,2,68,17,9,2,2,0.5,17,2.75,6,Lc,0.23861764705882352,0.20452941176470588,0.32533333333333325,0.3354999999999999,0.5,20,10,30,3,2
1,17,33,1,3,7.9299999999999935,16,43,32,34,75,69,11.83399999999999,7.441999999999994,0.6709999999999998,2.9889999999999977,20,16,3,6,62,35,3,12,5,0,17,4.25,6,Lc,0.19087096774193546,0.21262857142857142,0.22366666666666665,0.2490833333333333,0.5,20,10,30,3,2
1,17,34,1,6,25.74199999999998,15,105,10,6,4,8,26.22999999999998,4.513999999999997,10.247999999999992,0.9149999999999996,18,10,18,5,108,15,48,6,6,1,72,6,6,Lc,0.24287037037037035,0.3009333333333333,0.2135,0.1525,0.5,20,10,30,3,2
1,18,35,1,7,5.184999999999996,14,32,15,20,87,86,12.93199999999999,3.0499999999999976,1.7689999999999988,0.9759999999999995,20,14,6,6,59,16,6,6,6,0,18,4.5,6,Lc,0.21918644067796608,0.190625,0.2948333333333332,0.16266666666666665,0.5,20,10,30,3,2
1,18,36,1,5,11.162999999999991,19,60,44,76,40,37,12.87099999999999,1.2809999999999993,1.0979999999999994,1.0979999999999994,20,3,3,4,66,4,3,4,5,0.5,33,4.5,6,Lc,0.1950151515151515,0.3202499999999999,0.3659999999999998,0.27449999999999997,0.5,20,10,30,3,2
1,1,1,0,5,17.689999999999987,15,83,41,9,6,63,21.349999999999984,8.783999999999994,0.488,12.99299999999999,20,17,2,17,101,35,2,54,5,0,21,5.25,6,Lc,0.21138613861386135,0.25097142857142857,0.244,0.24061111111111108,0.5,20,10,30,3,3
1,1,2,0,1,20.251999999999985,19,82,83,74,19,102,21.471999999999984,0.244,0.8539999999999996,2.0739999999999985,20,2,4,9,87,2,4,10,3,0,14,3.5,6,Lc,0.2468045977011494,0.122,0.21349999999999997,0.20739999999999997,0.5,20,10,30,3,3
1,2,3,0,10,15.432999999999987,19,76,13,90,18,24,38.91799999999997,0.366,0.122,0.6099999999999999,20,2,2,3,177,2,2,3,3,0.5,39,5.25,6,Lc,0.21987570621468924,0.183,0.061,0.20333333333333334,0.5,20,10,30,3,3
1,2,4,0,9,13.48099999999999,19,77,80,68,66,71,16.10399999999999,1.7689999999999988,0.7929999999999997,1.8299999999999987,20,8,3,6,95,8,3,7,4,0.5,27,3.75,6,Lc,0.1695157894736842,0.221125,0.2643333333333333,0.2614285714285714,0.5,20,10,30,3,3
1,3,5,0,10,9.820999999999993,17,44,90,95,29,88,13.84699999999999,1.8909999999999987,6.160999999999995,0.305,20,7,15,5,67,8,27,5,3,0.5,23,3.5,6,Lc,0.20667164179104477,0.236375,0.22818518518518516,0.061,0.5,20,10,30,3,3
1,3,6,0,9,11.89499999999999,15,45,1,107,84,63,30.98799999999998,0.305,0.366,0.061,20,2,1,1,116,2,1,1,4,0,15,3.75,6,Lc,0.26713793103448275,0.1525,0.366,0.061,0.5,20,10,30,3,3
1,4,7,0,2,18.482999999999986,16,85,50,15,75,51,27.144999999999982,0.061,0.305,0.8539999999999996,20,1,1,6,118,1,1,7,4,0,17,4.25,6,Lc,0.23004237288135593,0.061,0.305,0.122,0.5,20,10,30,3,3
1,4,8,0,3,10.003999999999992,16,47,25,36,35,108,17.384999999999987,1.3419999999999992,2.439999999999998,4.330999999999997,20,5,7,13,79,5,8,22,5,0.5,32,4.25,6,Lc,0.22006329113924047,0.26839999999999997,0.30499999999999994,0.19686363636363635,0.5,20,10,30,3,3
1,5,9,0,6,12.74899999999999,18,71,1,10,8,7,13.602999999999989,1.7079999999999989,2.3789999999999982,2.9889999999999977,20,3,8,9,75,3,8,11,6,1,72,6,6,Lc,0.1813733333333333,0.5693333333333331,0.297375,0.2717272727272727,0.5,20,10,30,3,3
1,5,10,0,8,6.8929999999999945,17,39,110,114,115,119,8.173999999999994,1.2809999999999993,0.366,0.6709999999999998,20,4,3,4,46,5,3,4,2,1,24,2,6,Lc,0.17769565217391303,0.2562,0.122,0.16775,0.5,20,10,30,3,3
1,6,11,1,8,11.162999999999991,18,55,109,59,49,112,14.578999999999988,2.2569999999999983,2.683999999999998,0.122,20,7,11,1,72,8,12,1,2,0,12,3,6,Lc,0.2024861111111111,0.282125,0.22366666666666665,0.122,0.5,20,10,30,3,3
1,6,12,1,9,11.71199999999999,18,57,71,20,107,16,13.35899999999999,1.8909999999999987,9.942999999999993,0.9759999999999995,20,5,17,6,66,8,38,6,4,0,18,4.5,6,Lc,0.2024090909090909,0.23637499999999997,0.26165789473684203,0.16266666666666665,0.5,20,10,30,3,3
1,7,13,1,3,18.726999999999986,17,95,30,21,34,20,22.203999999999983,3.537999999999997,3.537999999999997,2.1349999999999985,20,4,9,7,109,6,17,10,5,0,22,5.5,6,Lc,0.20370642201834863,0.5896666666666663,0.20811764705882352,0.2135,0.5,20,10,30,3,3
1,7,14,1,5,13.29799999999999,18,61,44,47,75,105,16.04299999999999,0.244,3.720999999999997,1.7689999999999988,20,2,11,6,73,2,16,7,5,0,15,3.75,6,Lc,0.2197671232876712,0.122,0.23256249999999998,0.2527142857142857,0.5,20,10,30,3,3
1,8,15,1,5,14.578999999999988,16,67,44,39,17,119,14.883999999999988,0.8539999999999996,7.136999999999994,1.0369999999999995,19,7,14,5,70,8,21,6,5,0,18,4.5,6,Lc,0.21262857142857142,0.10675,0.33985714285714275,0.17283333333333334,0.5,20,10,30,3,3
1,8,16,1,6,12.38299999999999,16,53,3,2,55,56,15.249999999999988,9.088999999999993,1.585999999999999,3.842999999999997,20,16,5,9,66,33,6,9,6,0,20,5,6,Lc,0.23106060606060605,0.27542424242424235,0.2643333333333333,0.4269999999999999,0.5,20,10,30,3,3
1,9,17,1,2,25.61999999999998,17,117,59,51,103,41,28.791999999999977,2.1959999999999984,3.842999999999997,2.683999999999998,20,11,9,11,125,14,16,13,4,0,15,3.75,6,Lc,0.23033599999999999,0.15685714285714286,0.2401875,0.20646153846153842,0.5,20,10,30,3,3
1,9,18,1,7,10.491999999999992,19,57,17,14,69,22,14.51799999999999,5.550999999999996,0.061,1.3419999999999992,20,12,1,5,78,19,1,6,6,0.5,40,5.5,6,Lc,0.18612820512820513,0.29215789473684206,0.061,0.22366666666666665,0.5,20,10,30,3,3
1,10,19,1,2,11.162999999999991,16,64,38,55,59,40,12.44399999999999,0.7929999999999997,0.061,0.488,19,2,1,2,67,3,1,3,4,0,18,4.5,6,Lc,0.18573134328358207,0.2643333333333333,0.061,0.16266666666666665,0.5,20,10,30,3,3
1,10,20,1,6,7.990999999999993,18,41,8,7,6,115,11.284999999999991,4.147999999999997,2.561999999999998,3.903999999999997,20,13,11,13,54,15,14,20,6,0.5,38,5,6,Lc,0.20898148148148146,0.2765333333333333,0.183,0.19519999999999998,0.5,20,10,30,3,3
1,11,21,1,10,18.238999999999987,16,80,96,85,106,87,18.604999999999986,0.5489999999999999,0.9149999999999996,3.4159999999999973,19,2,2,13,83,3,2,17,3,0.5,20,2.75,6,Lc,0.22415662650602408,0.183,0.4575,0.20094117647058823,0.5,20,10,30,3,3
1,11,22,1,6,11.162999999999991,19,45,2,51,5,56,11.589999999999991,6.221999999999995,0.244,0.9149999999999996,20,14,3,4,47,20,3,5,6,0,20,5,6,Lc,0.24659574468085105,0.31109999999999993,0.08133333333333333,0.183,0.5,20,10,30,3,3
1,12,23,1,3,21.105999999999984,18,94,33,119,34,17,22.325999999999983,3.659999999999997,1.0369999999999995,5.428999999999996,20,12,6,15,101,21,7,29,5,0,18,4.5,6,Lc,0.22104950495049502,0.1742857142857143,0.14814285714285713,0.18720689655172412,0.5,20,10,30,3,3
1,12,24,1,10,15.432999999999987,16,71,90,89,37,11,15.981999999999987,9.210999999999993,1.524999999999999,17.872999999999987,20,15,4,17,76,45,4,83,3,0,17,4.25,6,Lc,0.21028947368421053,0.2046888888888889,0.3812499999999998,0.21533734939759033,0.5,20,10,30,3,3
1,13,25,1,7,12.74899999999999,18,57,16,14,48,13,13.17599999999999,0.244,9.149999999999993,1.8909999999999987,20,1,17,9,59,1,34,9,6,0.5,41,5.75,6,Lc,0.22332203389830507,0.244,0.26911764705882346,0.21011111111111108,0.5,20,10,30,3,3
1,13,26,1,10,29.767999999999976,17,121,6,92,5,85,30.316999999999975,3.0499999999999976,4.940999999999996,0.6099999999999999,18,10,13,3,122,12,29,3,3,0,18,4.5,6,Lc,0.24849999999999997,0.25416666666666665,0.17037931034482756,0.20333333333333334,0.5,20,10,30,3,3
1,14,27,1,7,12.68799999999999,18,58,39,24,21,73,16.835999999999988,2.3179999999999983,0.061,6.587999999999995,20,7,1,17,77,7,1,42,6,0,20,5,6,Lc,0.21864935064935065,0.33114285714285707,0.061,0.15685714285714283,0.5,20,10,30,3,3
1,14,28,1,10,22.142999999999983,17,89,86,92,6,95,22.264999999999983,4.025999999999997,0.6709999999999998,0.8539999999999996,18,13,2,4,90,18,2,4,3,0.5,24,3.75,6,Lc,0.24738888888888885,0.22366666666666665,0.3355,0.2135,0.5,20,10,30,3,3
1,15,29,1,6,16.713999999999988,16,87,52,53,6,12,26.778999999999982,3.903999999999997,0.7319999999999998,0.122,20,11,5,1,124,16,5,1,6,0,20,5,6,Lc,0.21595967741935482,0.244,0.1464,0.122,0.5,20,10,30,3,3
1,15,30,1,9,10.796999999999992,18,51,69,64,27,32,12.13899999999999,0.6709999999999998,1.2809999999999993,0.122,20,3,7,1,55,3,7,1,4,0,18,4.5,6,Lc,0.22070909090909088,0.22366666666666665,0.183,0.122,0.5,20,10,30,3,3
1,16,31,1,5,18.177999999999987,15,83,48,42,104,13,18.970999999999986,3.781999999999997,2.500999999999998,3.4159999999999973,19,10,10,6,87,15,13,12,5,0,18,4.5,6,Lc,0.21805747126436778,0.2521333333333333,0.19238461538461538,0.2846666666666666,0.5,20,10,30,3,3
1,16,32,1,6,9.576999999999993,13,59,5,53,9,12,13.41999999999999,0.6709999999999998,1.524999999999999,2.500999999999998,20,3,6,5,78,3,9,8,6,0.5,40,5.5,6,Lc,0.17205128205128203,0.22366666666666665,0.16944444444444445,0.31262499999999993,0.5,20,10,30,3,3
1,17,33,1,5,10.796999999999992,14,42,39,24,23,40,11.83399999999999,0.8539999999999996,1.463999999999999,0.061,18,2,3,1,46,2,6,1,5,0,22,5.5,6,Lc,0.2572608695652174,0.42699999999999994,0.24399999999999997,0.061,0.5,20,10,30,3,3
1,17,34,1,8,12.74899999999999,18,70,116,119,55,3,13.54199999999999,0.366,0.244,2.0739999999999985,20,1,1,7,74,2,1,9,2,0,14,3.5,6,Lc,0.183,0.183,0.244,0.23044444444444442,0.5,20,10,30,3,3
1,18,35,1,9,5.916999999999995,13,30,67,115,62,118,6.526999999999996,0.7929999999999997,0.8539999999999996,3.0499999999999976,15,6,5,10,32,6,6,12,4,0,12,3,6,Lc,0.20396875,0.13216666666666665,0.14233333333333334,0.25416666666666665,0.5,20,10,30,3,3
1,18,36,1,3,16.40899999999999,18,75,32,3,25,1,16.957999999999988,3.598999999999997,0.6099999999999999,0.488,20,10,3,2,78,16,4,2,5,0,22,5.5,6,Lc,0.21741025641025638,0.22493749999999998,0.1525,0.244,0.5,20,10,30,3,3
1,1,1,0,1,10.857999999999992,17,47,107,84,77,105,13.41999999999999,0.427,1.7079999999999989,3.4159999999999973,20,1,5,4,54,1,6,7,3,0,10,2.5,6,Lc,0.2485185185185185,0.427,0.2846666666666666,0.4879999999999998,0.5,20,10,30,3,4
1,1,2,0,5,6.953999999999994,14,31,42,44,47,14,8.600999999999994,0.183,0.488,6.770999999999995,19,1,2,14,36,1,2,29,5,0.5,36,5.25,6,Lc,0.23891666666666667,0.183,0.244,0.23348275862068965,0.5,20,10,30,3,4
1,2,3,0,6,18.604999999999986,16,93,1,57,12,7,18.848999999999986,2.0739999999999985,6.648999999999995,0.427,18,7,13,3,95,8,26,3,6,0.5,40,5.5,6,Lc,0.19841052631578945,0.25925,0.2557307692307692,0.14233333333333334,0.5,20,10,30,3,4
1,2,4,0,9,12.01699999999999,19,50,70,28,15,13,15.005999999999988,1.8299999999999987,4.818999999999996,15.493999999999987,20,6,13,14,64,8,19,68,4,0,21,5.25,6,Lc,0.23446874999999998,0.22874999999999998,0.2536315789473684,0.22785294117647056,0.5,20,10,30,3,4
1,3,5,0,5,9.881999999999993,16,48,41,42,9,40,15.49399999999999,0.122,0.6099999999999999,3.2939999999999974,20,1,3,9,62,1,3,13,5,0.5,36,5.25,6,Lc,0.24990322580645158,0.122,0.20333333333333334,0.2533846153846154,0.5,20,10,30,3,4
1,3,6,0,1,16.530999999999988,19,68,34,30,16,15,17.201999999999988,8.173999999999994,4.269999999999997,10.186999999999992,20,16,13,15,72,37,25,33,3,0,22,5.5,6,Lc,0.23891666666666664,0.2209189189189189,0.1708,0.30869696969696964,0.5,20,10,30,3,4
1,4,7,0,6,14.212999999999989,15,64,12,7,3,10,17.323999999999987,5.306999999999996,5.611999999999996,0.488,20,12,14,5,78,20,27,5,6,1,72,6,6,Lc,0.2221025641025641,0.26535,0.20785185185185182,0.09759999999999999,0.5,20,10,30,3,4
1,4,8,0,1,12.50499999999999,14,63,84,29,73,82,12.87099999999999,1.463999999999999,0.122,1.585999999999999,15,3,2,7,64,5,2,7,3,0.5,23,3.5,6,Lc,0.20110937499999998,0.2928,0.061,0.22657142857142856,0.5,20,10,30,3,4
1,5,9,0,8,12.44399999999999,20,60,116,110,14,114,15.859999999999987,0.122,3.0499999999999976,0.061,20,1,11,1,73,1,11,1,2,0.5,18,3,6,Lc,0.21726027397260272,0.122,0.2772727272727273,0.061,0.5,20,10,30,3,4
1,5,10,0,6,8.966999999999993,18,49,6,4,2,46,10.918999999999992,0.427,1.8299999999999987,3.2939999999999974,20,2,7,10,54,2,8,13,6,0.5,41,5.75,6,Lc,0.20220370370370372,0.2135,0.22874999999999995,0.2533846153846154,0.5,20,10,30,3,4
1,6,11,1,6,3.2939999999999974,12,16,6,8,77,78,11.345999999999991,3.1719999999999975,0.366,0.244,20,10,1,3,53,15,1,3,6,0,18,4.5,6,Lc,0.21407547169811317,0.21146666666666666,0.366,0.08133333333333333,0.5,20,10,30,3,4
1,6,12,1,3,4.940999999999996,16,24,101,14,30,31,19.275999999999986,2.683999999999998,0.6099999999999999,0.9149999999999996,20,9,2,5,86,10,2,5,5,0,18,4.5,6,Lc,0.2241395348837209,0.26839999999999997,0.30499999999999994,0.183,0.5,20,10,30,3,4
1,7,13,1,2,24.21699999999998,16,97,57,56,53,83,24.52199999999998,1.463999999999999,4.147999999999997,8.966999999999993,19,6,13,15,100,6,19,37,4,0.5,27,3.75,6,Lc,0.24521999999999997,0.244,0.2183157894736842,0.24235135135135133,0.5,20,10,30,3,4
1,7,14,1,9,9.271999999999993,17,49,71,67,62,94,9.454999999999993,1.2809999999999993,0.061,1.8909999999999987,18,6,1,4,50,6,1,4,4,0.5,27,3.75,6,Lc,0.1891,0.2135,0.061,0.47274999999999984,0.5,20,10,30,3,4
1,8,15,1,9,16.957999999999988,16,64,66,61,1,62,20.068999999999985,0.6709999999999998,3.476999999999997,1.7079999999999989,20,4,7,6,72,4,7,7,4,0.5,30,4.5,6,Lc,0.2787361111111111,0.16775,0.4967142857142856,0.24399999999999994,0.5,20,10,30,3,4
1,8,16,1,8,18.665999999999986,16,84,113,35,115,120,18.787999999999986,6.404999999999995,3.2939999999999974,0.9149999999999996,18,13,10,7,86,27,16,8,2,0.5,17,2.75,6,Lc,0.21846511627906975,0.23722222222222222,0.20587499999999997,0.114375,0.5,20,10,30,3,4
1,9,17,1,1,14.517999999999988,16,58,77,36,81,79,15.493999999999987,2.9279999999999977,0.244,6.038999999999995,18,8,2,12,60,8,2,22,3,0.5,23,3.5,6,Lc,0.2582333333333333,0.36599999999999994,0.122,0.27449999999999997,0.5,20,10,30,3,4
1,9,18,1,5,6.953999999999994,14,37,43,37,46,56,7.197999999999994,3.1719999999999975,6.8319999999999945,15.310999999999988,17,8,12,16,40,9,28,65,5,0.5,34,4.75,6,Lc,0.17995,0.35244444444444434,0.244,0.2355538461538461,0.5,20,10,30,3,4
1,10,19,1,7,16.04299999999999,19,72,22,24,13,15,16.835999999999988,0.427,1.524999999999999,3.3549999999999973,20,2,9,9,78,3,12,12,6,1,72,6,6,Lc,0.21584615384615383,0.14233333333333334,0.12708333333333333,0.2795833333333333,0.5,20,10,30,3,4
1,10,20,1,6,12.68799999999999,16,54,2,12,9,32,12.74899999999999,1.2809999999999993,5.123999999999996,4.330999999999997,17,5,11,13,55,6,21,16,6,0.5,41,5.75,6,Lc,0.23179999999999998,0.21349999999999997,0.24399999999999997,0.27068749999999997,0.5,20,10,30,3,4
1,11,21,1,9,18.482999999999986,16,85,13,97,65,45,87.10800000000047,0.183,0.183,0.305,20,1,1,3,364,1,1,3,4,0,17,4.25,6,Lc,0.23930769230769225,0.183,0.183,0.10166666666666667,0.5,20,10,30,3,4
1,11,22,1,2,13.54199999999999,17,67,12,7,2,11,17.567999999999987,11.89499999999999,3.2939999999999974,5.306999999999996,20,16,13,13,85,43,14,24,4,1,72,6,6,Lc,0.20668235294117646,0.27662790697674416,0.23528571428571426,0.22112499999999996,0.5,20,10,30,3,4
1,12,23,1,6,24.09499999999998,18,91,1,10,69,6,24.15599999999998,0.366,14.639999999999988,2.500999999999998,19,1,18,7,92,1,58,10,6,0.5,40,5.5,6,Lc,0.26256521739130434,0.366,0.25241379310344825,0.2501,0.5,20,10,30,3,4
1,12,24,1,7,4.330999999999997,16,24,15,22,18,99,5.794999999999996,1.0369999999999995,1.646999999999999,0.305,20,5,6,2,29,6,9,2,6,0.5,38,5,6,Lc,0.19982758620689653,0.17283333333333334,0.183,0.1525,0.5,20,10,30,3,4
1,13,25,1,1,15.554999999999987,18,76,80,49,36,26,17.445999999999987,11.406999999999991,0.6709999999999998,0.061,20,18,3,1,85,58,3,1,3,0,17,4.25,6,Lc,0.2052470588235294,0.19667241379310343,0.22366666666666665,0.061,0.5,20,10,30,3,4
1,13,26,1,10,11.589999999999991,18,57,86,96,93,92,15.676999999999989,0.5489999999999999,0.061,0.244,20,1,1,3,71,1,1,3,3,1,36,3,6,Lc,0.22080281690140843,0.5489999999999999,0.061,0.08133333333333333,0.5,20,10,30,3,4
1,14,27,1,10,16.957999999999988,18,73,85,89,96,100,17.079999999999988,0.9759999999999995,0.061,3.9649999999999967,19,4,1,12,74,4,1,20,3,0.5,20,2.75,6,Lc,0.23081081081081078,0.244,0.061,0.19824999999999998,0.5,20,10,30,3,4
1,14,28,1,7,10.186999999999992,17,48,21,28,15,20,10.308999999999992,1.524999999999999,2.3179999999999983,0.7929999999999997,18,6,10,6,49,7,14,6,6,0.5,41,5.75,6,Lc,0.2103877551020408,0.21785714285714283,0.16557142857142856,0.13216666666666665,0.5,20,10,30,3,4
1,15,29,1,7,18.421999999999986,15,82,41,16,14,17,21.166999999999984,0.427,8.783999999999994,2.3789999999999982,20,3,16,6,95,3,31,6,6,0.5,41,5.75,6,Lc,0.22281052631578946,0.14233333333333334,0.28335483870967737,0.3964999999999998,0.5,20,10,30,3,4
1,15,30,1,10,15.676999999999987,18,76,93,66,85,3,19.458999999999985,1.7079999999999989,0.9149999999999996,0.427,20,4,3,3,92,4,3,3,3,0,16,4,6,Lc,0.21151086956521736,0.4269999999999999,0.305,0.14233333333333334,0.5,20,10,30,3,4
1,16,31,1,7,15.859999999999987,16,66,17,16,15,71,20.190999999999985,1.585999999999999,0.6709999999999998,0.8539999999999996,20,11,4,3,94,15,4,5,6,0.5,40,5.5,6,Lc,0.21479787234042552,0.10573333333333333,0.16775,0.1708,0.5,20,10,30,3,4
1,16,32,1,1,7.685999999999994,15,39,75,77,84,83,8.051999999999994,1.2199999999999993,0.244,5.672999999999996,17,4,2,13,41,4,2,25,3,1,36,3,6,Lc,0.196390243902439,0.305,0.122,0.22691999999999998,0.5,20,10,30,3,4
1,17,33,1,3,13.35899999999999,19,71,1,10,72,27,29.82899999999998,0.061,2.1349999999999985,0.6099999999999999,20,1,4,5,139,1,6,5,5,0,21,5.25,6,Lc,0.21459712230215824,0.061,0.3558333333333333,0.122,0.5,20,10,30,3,4
1,17,34,1,7,10.674999999999992,16,50,19,37,43,21,11.589999999999991,0.8539999999999996,1.0369999999999995,0.427,19,3,2,4,53,4,2,4,6,0,22,5.5,6,Lc,0.21867924528301885,0.2135,0.5184999999999998,0.10675,0.5,20,10,30,3,4
1,18,35,1,8,22.081999999999983,17,100,120,116,110,6,24.52199999999998,0.7929999999999997,1.2809999999999993,3.2939999999999974,20,6,4,10,112,7,5,17,2,0.5,18,3,6,Lc,0.21894642857142854,0.11328571428571428,0.2562,0.19376470588235292,0.5,20,10,30,3,4
1,18,36,1,9,5.489999999999996,14,26,67,69,35,91,15.31099999999999,1.4029999999999991,2.0129999999999986,0.5489999999999999,20,10,8,2,77,11,11,2,4,0,16,4,6,Lc,0.19884415584415582,0.12754545454545455,0.183,0.27449999999999997,0.5,20,10,30,3,4
1,1,1,0,9,10.552999999999992,18,49,62,89,71,31,11.101999999999991,1.463999999999999,0.244,1.7079999999999989,20,5,1,7,54,6,1,7,4,0,16,4,6,Lc,0.20559259259259258,0.24399999999999994,0.244,0.24399999999999994,0.5,20,10,30,3,5
1,1,2,0,7,12.99299999999999,18,58,19,17,108,51,15.127999999999988,3.903999999999997,4.513999999999997,0.427,20,8,13,2,69,19,21,2,6,0,18,4.5,6,Lc,0.21924637681159417,0.2054736842105263,0.21495238095238095,0.2135,0.5,20,10,30,3,5
1,2,3,0,5,10.186999999999992,18,46,47,84,97,105,11.95599999999999,20.922999999999984,2.3179999999999983,1.524999999999999,20,17,10,7,56,89,11,7,5,0,12,3,6,Lc,0.21349999999999997,0.2350898876404494,0.2107272727272727,0.21785714285714283,0.5,20,10,30,3,5
1,2,4,0,6,16.530999999999988,19,76,50,4,10,94,18.421999999999986,2.3179999999999983,0.244,5.7339999999999955,20,9,3,11,87,11,4,18,6,0,19,4.75,6,Lc,0.2117471264367816,0.21072727272727274,0.061,0.31855555555555554,0.5,20,10,30,3,5
1,3,5,0,8,12.01699999999999,16,61,115,30,89,113,12.74899999999999,2.683999999999998,1.4029999999999991,4.879999999999996,20,5,5,12,65,7,6,19,2,0,12,3,6,Lc,0.19613846153846154,0.38342857142857134,0.23383333333333334,0.25684210526315787,0.5,20,10,30,3,5
1,3,6,0,5,16.591999999999988,17,76,43,16,14,48,18.726999999999986,23.85099999999998,11.89499999999999,1.2199999999999993,20,19,18,5,85,100,46,6,5,0,22,5.5,6,Lc,0.2203176470588235,0.23850999999999997,0.2585869565217391,0.20333333333333334,0.5,20,10,30,3,5
1,4,7,0,6,8.905999999999993,19,55,1,8,5,11,13.78599999999999,0.061,0.7929999999999997,0.061,20,1,4,1,78,1,4,1,6,1,72,6,6,Lc,0.17674358974358972,0.061,0.19824999999999998,0.061,0.5,20,10,30,3,5
1,4,8,0,5,8.722999999999994,15,37,45,41,42,39,9.332999999999993,2.2569999999999983,0.427,1.7079999999999989,19,7,4,4,41,11,4,4,5,1,60,5,6,Lc,0.2276341463414634,0.20518181818181816,0.10675,0.42699999999999994,0.5,20,10,30,3,5
1,5,9,0,9,18.116999999999987,18,83,68,63,69,2,20.190999999999985,1.2199999999999993,3.0499999999999976,7.075999999999994,20,6,9,13,88,6,11,28,4,0.5,30,4.5,6,Lc,0.2294431818181818,0.20333333333333334,0.2772727272727273,0.25271428571428567,0.5,20,10,30,3,5
1,5,10,0,7,12.74899999999999,19,72,18,16,54,74,14.212999999999989,0.427,2.683999999999998,4.513999999999997,20,2,7,9,79,2,8,14,6,0,19,4.75,6,Lc,0.1799113924050633,0.2135,0.3354999999999999,0.32242857142857134,0.5,20,10,30,3,5
1,6,11,1,9,9.942999999999993,17,62,63,70,69,4,11.223999999999991,1.646999999999999,16.896999999999988,0.7319999999999998,20,8,17,2,69,11,59,3,4,0.5,30,4.5,6,Lc,0.16266666666666665,0.14972727272727274,0.28638983050847455,0.244,0.5,20,10,30,3,5
1,6,12,1,3,10.735999999999992,17,53,30,31,98,35,12.19999999999999,0.427,1.0979999999999994,3.476999999999997,20,2,3,11,63,2,4,19,5,0.5,32,4.25,6,Lc,0.19365079365079366,0.2135,0.27449999999999986,0.18299999999999997,0.5,20,10,30,3,5
1,7,13,1,6,12.62699999999999,17,57,12,1,26,11,13.29799999999999,0.7319999999999998,3.2329999999999974,0.9759999999999995,20,2,7,3,61,3,13,4,6,0.5,41,5.75,6,Lc,0.21799999999999997,0.244,0.24869230769230768,0.24399999999999997,0.5,20,10,30,3,5
1,7,14,1,8,8.234999999999994,17,45,109,13,120,111,13.419999999999991,15.432999999999987,0.061,1.7079999999999989,20,16,1,5,62,59,1,6,2,0.5,18,3,6,Lc,0.2164516129032258,0.26157627118644067,0.061,0.28466666666666657,0.5,20,10,30,3,5
1,8,15,1,5,12.13899999999999,16,53,46,47,44,45,13.17599999999999,0.9149999999999996,2.622999999999998,0.8539999999999996,20,3,9,4,59,3,13,4,5,1,60,5,6,Lc,0.22332203389830507,0.30499999999999994,0.20176923076923076,0.2135,0.5,20,10,30,3,5
1,8,16,1,8,23.54599999999998,15,100,57,93,9,4,24.39999999999998,6.160999999999995,35.196999999999974,4.452999999999997,17,12,18,9,102,22,124,15,2,0,19,4.75,6,Lc,0.23921568627450976,0.28004545454545454,0.28384677419354837,0.2968666666666666,0.5,20,10,30,3,5
1,9,17,1,10,10.735999999999992,14,48,106,61,16,18,32.81799999999998,2.500999999999998,2.805999999999998,8.173999999999994,20,7,8,15,152,9,9,37,3,0,18,4.5,6,Lc,0.2159078947368421,0.27788888888888885,0.3117777777777777,0.2209189189189189,0.5,20,10,30,3,5
1,9,18,1,2,9.515999999999993,14,42,59,51,57,9,9.759999999999993,3.1719999999999975,0.9149999999999996,4.147999999999997,15,13,5,9,43,17,5,17,4,0.5,30,4.5,6,Lc,0.2269767441860465,0.18658823529411764,0.183,0.244,0.5,20,10,30,3,5
1,10,19,1,6,12.07799999999999,17,59,11,9,2,8,12.74899999999999,1.524999999999999,4.391999999999997,12.93199999999999,20,6,16,17,64,7,30,63,6,1,72,6,6,Lc,0.19920312499999998,0.21785714285714283,0.1464,0.20526984126984124,0.5,20,10,30,3,5
1,10,20,1,5,7.502999999999994,14,40,45,39,41,37,7.807999999999994,0.061,2.3179999999999983,6.038999999999995,16,1,10,14,42,1,12,28,5,1,60,5,6,Lc,0.1859047619047619,0.061,0.19316666666666665,0.21567857142857141,0.5,20,10,30,3,5
1,11,21,1,3,10.979999999999992,19,53,33,28,29,15,11.83399999999999,3.3549999999999973,0.122,22.691999999999982,20,13,1,17,56,18,1,89,5,0.5,36,5.25,6,Lc,0.21132142857142855,0.18638888888888888,0.122,0.2549662921348314,0.5,20,10,30,3,5
1,11,22,1,9,9.210999999999993,16,52,65,67,89,110,10.735999999999992,2.683999999999998,7.197999999999994,9.271999999999993,20,8,14,16,63,13,25,34,4,0,13,3.25,6,Lc,0.1704126984126984,0.20646153846153845,0.28791999999999995,0.27270588235294113,0.5,20,10,30,3,5
1,12,23,1,3,12.80999999999999,13,54,36,31,35,53,15.859999999999987,0.6099999999999999,1.8909999999999987,5.306999999999996,20,4,6,17,69,4,7,23,5,0.5,34,4.75,6,Lc,0.2298550724637681,0.1525,0.27014285714285713,0.23073913043478259,0.5,20,10,30,3,5
1,12,24,1,10,9.759999999999993,16,42,93,89,94,39,14.39599999999999,0.305,3.842999999999997,11.650999999999991,20,1,9,13,58,2,11,47,3,0.5,23,3.5,6,Lc,0.24820689655172412,0.1525,0.3493636363636363,0.24789361702127657,0.5,20,10,30,3,5
1,13,25,1,6,7.258999999999994,14,31,2,3,10,98,7.8079999999999945,0.8539999999999996,0.6709999999999998,2.2569999999999983,17,6,4,6,34,6,4,7,6,0.5,38,5,6,Lc,0.22964705882352937,0.14233333333333334,0.16775,0.32242857142857134,0.5,20,10,30,3,5
1,13,26,1,2,6.099999999999995,13,32,52,53,50,91,8.417999999999994,2.9279999999999977,0.5489999999999999,6.282999999999995,20,9,3,14,47,10,3,21,4,0.5,27,3.75,6,Lc,0.1791063829787234,0.29279999999999995,0.183,0.2991904761904762,0.5,20,10,30,3,5
1,14,27,1,8,11.89499999999999,19,53,110,117,116,77,17.567999999999987,1.2809999999999993,0.366,2.9279999999999977,20,5,3,11,73,5,3,15,2,0.5,15,2.25,6,Lc,0.24065753424657532,0.2562,0.122,0.19519999999999998,0.5,20,10,30,3,5
1,14,28,1,5,16.591999999999988,19,84,42,37,20,96,17.323999999999987,0.7929999999999997,12.50499999999999,3.598999999999997,20,4,16,14,89,4,46,17,5,0,19,4.75,6,Lc,0.19465168539325842,0.19824999999999998,0.2718478260869565,0.21170588235294116,0.5,20,10,30,3,5
1,15,29,1,8,11.95599999999999,15,53,58,111,112,115,12.62699999999999,0.244,1.7689999999999988,2.1349999999999985,16,3,5,6,54,3,7,9,2,0.5,16,2.5,6,Lc,0.2338333333333333,0.08133333333333333,0.2527142857142857,0.23722222222222222,0.5,20,10,30,3,5
1,15,30,1,1,10.430999999999992,18,49,10,80,5,101,11.77299999999999,3.476999999999997,2.9279999999999977,3.2329999999999974,20,12,10,9,53,18,15,12,3,0,17,4.25,6,Lc,0.22213207547169808,0.19316666666666665,0.19519999999999998,0.26941666666666664,0.5,20,10,30,3,5
1,16,31,1,5,12.44399999999999,19,66,41,42,94,43,12.80999999999999,3.2939999999999974,0.6099999999999999,5.123999999999996,20,9,1,15,68,15,1,26,5,0.5,33,4.5,6,Lc,0.18838235294117647,0.2196,0.6099999999999999,0.19707692307692307,0.5,20,10,30,3,5
1,16,32,1,7,3.903999999999997,8,14,17,21,14,20,5.001999999999996,0.305,4.391999999999997,3.4159999999999973,14,2,13,14,21,3,21,22,6,1,72,6,6,Lc,0.23819047619047617,0.10166666666666667,0.20914285714285713,0.15527272727272726,0.5,20,10,30,3,5
1,17,33,1,8,13.23699999999999,16,72,111,120,113,115,13.54199999999999,1.8299999999999987,0.7929999999999997,0.122,18,7,2,2,74,8,3,2,2,1,24,2,6,Lc,0.183,0.22874999999999998,0.2643333333333333,0.061,0.5,20,10,30,3,5
1,17,34,1,9,15.615999999999987,20,73,13,68,64,103,86.55900000000074,0.183,0.5489999999999999,0.7319999999999998,20,2,3,4,387,2,3,4,4,0,16,4,6,Lc,0.22366666666666665,0.0915,0.183,0.183,0.5,20,10,30,3,5
1,1,1,0,5,11.040999999999991,17,50,40,48,43,49,11.406999999999991,0.244,2.0739999999999985,1.8909999999999987,19,1,8,9,52,1,9,11,5,0.5,34,4.75,6,Lc,0.2193653846153846,0.244,0.23044444444444442,0.1719090909090909,0.5,20,10,30,3,6
1,1,2,0,4,13.17599999999999,17,61,26,97,105,106,14.090999999999989,0.061,0.7929999999999997,3.1109999999999975,18,1,2,8,62,1,2,12,2,0.5,17,2.75,6,Lc,0.22727419354838707,0.061,0.39649999999999985,0.2592499999999999,0.5,20,10,30,3,6
1,2,3,0,6,10.613999999999992,17,39,2,26,10,3,11.77299999999999,3.842999999999997,7.319999999999994,1.4029999999999991,20,12,14,6,45,20,36,7,6,0.5,41,5.75,6,Lc,0.2616222222222222,0.19215,0.20333333333333334,0.20042857142857143,0.5,20,10,30,3,6
1,2,4,0,8,14.334999999999988,17,73,116,19,117,119,15.432999999999987,4.574999999999997,2.744999999999998,0.244,20,14,9,4,78,23,14,4,2,0.5,18,3,6,Lc,0.19785897435897434,0.19891304347826086,0.19607142857142856,0.061,0.5,20,10,30,3,6
1,3,5,0,5,17.567999999999987,17,73,37,41,47,75,19.885999999999985,4.025999999999997,0.122,5.855999999999995,20,12,1,12,82,15,1,17,5,0.5,33,4.5,6,Lc,0.2425121951219512,0.26839999999999997,0.122,0.3444705882352941,0.5,20,10,30,3,6
1,3,6,0,4,11.528999999999991,16,54,107,106,50,34,15.432999999999987,0.061,2.439999999999998,0.183,20,1,8,1,69,1,11,2,2,0,13,3.25,6,Lc,0.22366666666666662,0.061,0.2218181818181818,0.0915,0.5,20,10,30,3,6
1,4,7,0,3,16.34799999999999,16,79,35,31,34,88,16.530999999999988,1.524999999999999,0.366,7.8689999999999936,17,7,3,16,80,10,3,39,5,0.5,33,4.5,6,Lc,0.20663749999999997,0.1525,0.122,0.20176923076923076,0.5,20,10,30,3,6
1,4,8,0,2,19.153999999999986,17,90,20,57,54,37,54.594999999999956,0.122,0.061,0.244,20,2,1,1,225,2,1,1,4,0,19,4.75,6,Lc,0.24264444444444438,0.061,0.061,0.244,0.5,20,10,30,3,6
1,5,9,0,9,11.528999999999991,16,56,67,64,42,71,12.01699999999999,0.122,7.8689999999999936,0.183,18,1,15,1,58,1,36,1,4,0.5,29,4.25,6,Lc,0.20718965517241378,0.122,0.2185833333333333,0.183,0.5,20,10,30,3,6
1,5,10,0,6,15.798999999999987,17,80,3,54,2,12,19.214999999999986,0.488,0.305,1.1589999999999994,20,2,2,6,92,2,2,8,6,0.5,40,5.5,6,Lc,0.2088586956521739,0.244,0.1525,0.14487499999999998,0.5,20,10,30,3,6
1,6,11,1,1,19.031999999999986,18,83,81,60,57,16,19.702999999999985,6.648999999999995,0.183,4.269999999999997,20,14,1,11,85,24,1,16,3,0,17,4.25,6,Lc,0.23179999999999998,0.27704166666666663,0.183,0.266875,0.5,20,10,30,3,6
1,6,12,1,9,11.101999999999991,13,58,68,2,69,86,11.589999999999991,13.846999999999989,2.1959999999999984,2.1959999999999984,16,18,9,11,61,61,9,11,4,0,17,4.25,6,Lc,0.19,0.22699999999999998,0.244,0.19963636363636364,0.5,20,10,30,3,6
1,7,13,1,7,20.678999999999984,15,107,22,14,24,51,21.349999999999984,8.356999999999994,3.2329999999999974,5.977999999999995,17,13,10,13,109,36,12,28,6,0.5,40,5.5,6,Lc,0.19587155963302752,0.23213888888888887,0.2694166666666666,0.2135,0.5,20,10,30,3,6
1,7,14,1,6,8.539999999999994,12,46,7,4,5,11,11.467999999999991,5.428999999999996,3.842999999999997,3.842999999999997,20,14,14,13,59,20,18,15,6,1,72,6,6,Lc,0.1943728813559322,0.27144999999999997,0.21349999999999997,0.25619999999999993,0.5,20,10,30,3,6
1,8,15,1,5,13.54199999999999,17,63,58,37,42,9,15.859999999999987,0.427,0.122,12.87099999999999,20,1,1,16,73,1,1,54,5,0,20,5,6,Lc,0.21726027397260272,0.427,0.122,0.23835185185185181,0.5,20,10,30,3,6
1,8,16,1,1,15.005999999999988,18,67,13,102,76,80,24.27799999999998,0.183,3.537999999999997,0.122,20,1,6,1,99,1,7,1,3,0,14,3.5,6,Lc,0.2452323232323232,0.183,0.5054285714285712,0.122,0.5,20,10,30,3,6
1,9,17,1,1,6.8319999999999945,12,36,75,82,73,81,8.478999999999994,0.122,4.269999999999997,0.5489999999999999,20,1,10,3,49,1,14,3,3,1,36,3,6,Lc,0.17304081632653062,0.122,0.30499999999999994,0.183,0.5,20,10,30,3,6
1,9,18,1,10,12.56599999999999,15,52,54,94,14,13,14.212999999999989,0.244,7.685999999999994,4.391999999999997,19,1,16,13,58,1,42,18,3,0,19,4.75,6,Lc,0.24505172413793103,0.244,0.183,0.24399999999999997,0.5,20,10,30,3,6
1,10,19,1,9,5.367999999999996,12,30,72,64,69,110,5.611999999999996,3.903999999999997,0.6099999999999999,3.3549999999999973,13,12,3,9,31,21,3,11,4,0.5,26,3.5,6,Lc,0.18103225806451612,0.18590476190476188,0.20333333333333334,0.30499999999999994,0.5,20,10,30,3,6
1,10,20,1,5,15.920999999999987,15,72,53,47,48,21,16.652999999999988,2.0739999999999985,0.305,13.48099999999999,17,6,3,15,74,6,3,60,5,0,20,5,6,Lc,0.2250405405405405,0.34566666666666657,0.10166666666666667,0.2246833333333333,0.5,20,10,30,3,6
1,11,21,1,8,8.844999999999994,18,50,116,120,109,55,9.271999999999993,2.1349999999999985,1.8909999999999987,0.5489999999999999,19,6,6,2,51,8,7,2,2,0.5,16,2.5,6,Lc,0.18180392156862743,0.2668749999999999,0.2701428571428571,0.27449999999999997,0.5,20,10,30,3,6
1,11,22,1,6,6.8319999999999945,14,40,2,5,9,70,6.8929999999999945,1.7689999999999988,4.330999999999997,6.8929999999999945,15,7,9,16,41,9,17,29,6,0.5,40,5.5,6,Lc,0.16812195121951218,0.19655555555555554,0.2547647058823529,0.23768965517241378,0.5,20,10,30,3,6
1,12,23,1,5,7.746999999999994,16,39,42,39,56,58,8.234999999999994,2.1349999999999985,6.770999999999995,1.3419999999999992,20,10,12,7,44,12,27,7,5,0,18,4.5,6,Lc,0.18715909090909091,0.17791666666666667,0.25077777777777777,0.1917142857142857,0.5,20,10,30,3,6
1,12,24,1,9,16.652999999999988,11,70,65,64,85,114,18.604999999999986,0.061,2.3179999999999983,2.0739999999999985,18,1,9,8,80,1,13,14,4,0,13,3.25,6,Lc,0.23256249999999998,0.061,0.1783076923076923,0.14814285714285713,0.5,20,10,30,3,6
1,13,25,1,3,15.859999999999987,20,67,26,9,28,1,16.34799999999999,1.7079999999999989,0.366,3.2329999999999974,20,4,1,9,71,8,1,12,5,0,22,5.5,6,Lc,0.23025352112676054,0.2135,0.366,0.26941666666666664,0.5,20,10,30,3,6
1,13,26,1,7,31.719999999999974,16,126,15,18,14,22,32.57399999999998,0.6709999999999998,1.4029999999999991,2.439999999999998,20,4,4,10,131,4,4,12,6,1,72,6,6,Lc,0.24865648854961828,0.16775,0.3507499999999999,0.20333333333333334,0.5,20,10,30,3,6
1,14,27,1,1,4.940999999999996,14,24,47,49,80,52,29.584999999999976,0.5489999999999999,0.6709999999999998,0.061,20,4,2,1,138,4,4,1,3,0,16,4,6,Lc,0.21438405797101448,0.13724999999999998,0.16775,0.061,0.5,20,10,30,3,6
1,14,28,1,3,25.07099999999998,12,117,35,32,97,103,25.25399999999998,0.122,5.306999999999996,5.611999999999996,13,1,13,14,118,1,22,22,5,0,14,3.5,6,Lc,0.21401694915254235,0.122,0.2412272727272727,0.25509090909090903,0.5,20,10,30,3,6
1,15,29,1,3,20.495999999999984,14,99,13,102,33,49,399.06199999997915,0.061,0.061,0.9149999999999996,20,1,1,4,1672,1,1,4,5,0,17,4.25,6,Lc,0.23867344497607654,0.061,0.061,0.22875,0.5,20,10,30,3,6
1,15,30,1,1,18.726999999999986,18,88,74,75,6,9,20.190999999999985,1.3419999999999992,2.805999999999998,0.427,20,7,8,1,97,9,11,1,3,0,18,4.5,6,Lc,0.2081546391752577,0.1491111111111111,0.2550909090909091,0.427,0.5,20,10,30,3,6
1,16,31,1,7,6.099999999999995,13,30,17,20,19,23,6.7709999999999955,5.184999999999996,4.574999999999997,0.305,16,9,12,2,35,13,19,2,6,1,72,6,6,Lc,0.19345714285714286,0.39884615384615374,0.24078947368421053,0.1525,0.5,20,10,30,3,6
1,16,32,1,9,7.807999999999994,16,35,74,25,6,81,25.92499999999998,1.7689999999999988,2.2569999999999983,0.427,20,7,10,2,108,9,11,2,4,0,17,4.25,6,Lc,0.24004629629629626,0.19655555555555554,0.2051818181818182,0.2135,0.5,20,10,30,3,6
1,1,1,0,7,13.785999999999989,17,74,16,13,46,63,14.395999999999988,14.395999999999988,1.2809999999999993,0.061,20,19,3,1,79,58,3,1,6,0,21,5.25,6,Lc,0.1822278481012658,0.24820689655172412,0.4269999999999999,0.061,0.5,20,10,30,3,7
1,1,2,0,6,13.785999999999989,20,68,9,29,4,2,17.140999999999988,1.2199999999999993,6.8319999999999945,0.427,20,6,15,3,86,8,31,3,6,0.5,41,5.75,6,Lc,0.19931395348837208,0.1525,0.22038709677419355,0.14233333333333334,0.5,20,10,30,3,7
1,2,3,0,2,17.628999999999987,20,93,51,102,40,16,19.946999999999985,4.147999999999997,1.524999999999999,0.6099999999999999,20,11,8,1,102,15,11,2,4,0,17,4.25,6,Lc,0.19555882352941176,0.2765333333333333,0.1386363636363636,0.305,0.5,20,10,30,3,7
1,2,4,0,9,12.62699999999999,19,58,66,67,85,71,13.846999999999989,1.4029999999999991,2.3789999999999982,0.122,20,4,7,1,63,7,9,1,4,0.5,27,3.75,6,Lc,0.2197936507936508,0.20042857142857143,0.2643333333333333,0.122,0.5,20,10,30,3,7
1,3,5,0,6,12.01699999999999,14,42,3,2,4,30,12.74899999999999,2.2569999999999983,1.4029999999999991,1.8909999999999987,17,7,3,6,45,9,5,10,6,0.5,41,5.75,6,Lc,0.28331111111111107,0.25077777777777777,0.28059999999999996,0.1891,0.5,20,10,30,3,7
1,3,6,0,8,12.38299999999999,16,57,118,13,14,88,13.05399999999999,5.123999999999996,12.19999999999999,0.427,20,14,18,3,61,24,57,3,2,0,17,4.25,6,Lc,0.214,0.21349999999999997,0.21403508771929822,0.14233333333333334,0.5,20,10,30,3,7
1,4,7,0,6,6.465999999999995,12,28,12,4,8,11,7.990999999999994,0.9759999999999995,0.6099999999999999,0.5489999999999999,19,4,3,2,36,5,3,2,6,1,72,6,6,Lc,0.22197222222222218,0.19519999999999998,0.20333333333333334,0.27449999999999997,0.5,20,10,30,3,7
1,4,8,0,8,6.282999999999995,14,34,113,14,19,111,10.369999999999992,21.654999999999983,0.7929999999999997,0.488,20,19,3,4,47,83,4,4,2,0,16,4,6,Lc,0.2206382978723404,0.2609036144578313,0.19824999999999998,0.122,0.5,20,10,30,3,7
1,5,9,0,9,12.87099999999999,17,58,67,71,61,64,13.663999999999989,0.7319999999999998,3.476999999999997,1.4029999999999991,20,5,11,7,64,6,17,7,4,1,48,4,6,Lc,0.2135,0.122,0.20452941176470585,0.20042857142857143,0.5,20,10,30,3,7
1,5,10,0,5,10.003999999999992,16,49,47,37,85,48,12.26099999999999,1.3419999999999992,2.0739999999999985,2.683999999999998,20,6,7,10,62,6,8,13,5,0.5,33,4.5,6,Lc,0.197758064516129,0.22366666666666665,0.25925,0.20646153846153845,0.5,20,10,30,3,7
1,6,11,1,4,12.32199999999999,15,53,99,108,103,18,15.432999999999987,6.221999999999995,0.061,7.685999999999994,20,13,1,14,70,31,1,32,2,0.5,18,3,6,Lc,0.22047142857142854,0.20070967741935483,0.061,0.2401875,0.5,20,10,30,3,7
1,6,12,1,6,9.881999999999993,18,56,3,1,8,86,10.491999999999992,3.2329999999999974,0.6709999999999998,2.9889999999999977,20,15,3,10,60,18,3,11,6,0.5,39,5.25,6,Lc,0.17486666666666667,0.1796111111111111,0.22366666666666665,0.2717272727272727,0.5,20,10,30,3,7
1,7,13,1,9,7.136999999999994,15,34,4,67,5,89,26.53499999999998,6.160999999999995,4.452999999999997,1.8299999999999987,20,16,12,8,103,27,19,9,4,0,19,4.75,6,Lc,0.2576213592233009,0.22818518518518513,0.23436842105263156,0.2033333333333333,0.5,20,10,30,3,7
1,7,14,1,7,10.186999999999992,14,47,13,14,23,17,12.93199999999999,0.9149999999999996,3.598999999999997,8.722999999999994,20,5,10,17,60,5,19,37,6,1,72,6,6,Lc,0.21553333333333333,0.183,0.18942105263157893,0.23575675675675672,0.5,20,10,30,3,7
1,8,15,1,3,19.092999999999986,16,71,26,28,93,110,21.410999999999984,0.427,1.9519999999999986,2.0129999999999986,20,4,7,3,82,4,9,4,5,0,15,3.75,6,Lc,0.26110975609756093,0.10675,0.21688888888888885,0.5032499999999998,0.5,20,10,30,3,7
1,8,16,1,7,10.552999999999992,15,46,21,14,100,17,12.38299999999999,4.7579999999999965,2.744999999999998,12.99299999999999,20,11,6,15,57,23,7,53,6,0.5,38,5,6,Lc,0.2172456140350877,0.20686956521739128,0.39214285714285707,0.2451509433962264,0.5,20,10,30,3,7
1,9,17,1,3,10.369999999999992,16,51,32,29,28,5,12.62699999999999,2.805999999999998,7.563999999999994,9.149999999999993,20,11,14,16,60,16,34,37,5,0.5,36,5.25,6,Lc,0.21045,0.175375,0.2224705882352941,0.24729729729729727,0.5,20,10,30,3,7
1,9,18,1,9,14.090999999999989,16,74,72,65,69,116,16.34799999999999,0.366,0.8539999999999996,7.685999999999994,20,2,4,15,87,2,4,34,4,0.5,26,3.5,6,Lc,0.1879080459770115,0.183,0.2135,0.22605882352941173,0.5,20,10,30,3,7
1,10,19,1,3,18.055999999999987,15,92,31,34,29,89,19.946999999999985,0.061,0.9149999999999996,4.7579999999999965,20,1,4,11,100,1,5,19,5,0.5,33,4.5,6,Lc,0.19946999999999998,0.061,0.183,0.25042105263157893,0.5,20,10,30,3,7
1,10,20,1,6,10.430999999999992,18,47,9,4,59,2,10.918999999999992,3.903999999999997,9.881999999999993,4.208999999999997,20,10,15,13,49,17,40,20,6,0.5,40,5.5,6,Lc,0.22283673469387755,0.22964705882352937,0.24705,0.21045,0.5,20,10,30,3,7
1,11,21,1,4,9.576999999999993,16,44,4,30,102,101,27.57199999999998,0.061,0.427,0.122,20,1,3,2,106,1,3,2,2,0,15,3.75,6,Lc,0.26011320754716977,0.061,0.14233333333333334,0.061,0.5,20,10,30,3,7
1,11,22,1,5,16.04299999999999,16,72,38,46,47,118,22.142999999999983,1.3419999999999992,0.427,3.9649999999999967,20,5,4,12,100,5,4,19,5,0.5,32,4.25,6,Lc,0.22143,0.26839999999999997,0.10675,0.20868421052631578,0.5,20,10,30,3,7
1,12,23,1,9,10.979999999999992,19,49,72,115,86,71,12.32199999999999,2.3179999999999983,0.7929999999999997,0.061,20,7,2,1,58,10,2,1,4,0,13,3.25,6,Lc,0.21244827586206894,0.23179999999999998,0.39649999999999996,0.061,0.5,20,10,30,3,7
1,12,24,1,1,35.257999999999974,18,142,80,25,10,83,35.989999999999974,0.366,1.7079999999999989,5.062999999999996,20,1,6,12,145,1,6,18,3,0,17,4.25,6,Lc,0.2482068965517241,0.366,0.2846666666666666,0.28127777777777774,0.5,20,10,30,3,7
1,13,25,1,5,17.384999999999987,16,75,118,48,11,2,19.397999999999985,0.488,1.2809999999999993,4.086999999999997,20,2,4,10,85,2,4,13,5,0,19,4.75,6,Lc,0.22821176470588234,0.244,0.32025,0.3143846153846153,0.5,20,10,30,3,7
1,13,26,1,7,7.685999999999994,17,40,13,89,16,21,11.406999999999991,1.7689999999999988,1.585999999999999,1.0979999999999994,20,3,7,4,59,4,11,5,6,0.5,39,5.25,6,Lc,0.19333898305084746,0.4422499999999999,0.1441818181818182,0.21959999999999996,0.5,20,10,30,3,7
1,14,27,1,2,11.040999999999991,18,56,51,2,49,3,13.968999999999989,0.7319999999999998,2.744999999999998,0.7929999999999997,20,6,10,3,73,6,12,3,4,0,20,5,6,Lc,0.19135616438356162,0.122,0.22874999999999998,0.2643333333333333,0.5,20,10,30,3,7
1,14,28,1,10,15.737999999999987,18,74,91,94,86,117,20.068999999999985,0.244,3.2329999999999974,4.574999999999997,20,2,8,11,85,2,10,19,3,0.5,20,2.75,6,Lc,0.23610588235294114,0.122,0.3232999999999999,0.2407894736842105,0.5,20,10,30,3,7
1,15,29,1,5,9.210999999999993,16,49,40,46,80,38,11.89499999999999,0.7319999999999998,0.366,0.122,20,7,2,1,60,7,2,1,5,0.5,33,4.5,6,Lc,0.19824999999999998,0.10457142857142857,0.183,0.122,0.5,20,10,30,3,7
1,15,30,1,3,9.271999999999993,13,43,111,31,25,118,10.308999999999992,2.1959999999999984,2.683999999999998,5.489999999999996,18,8,5,13,49,10,7,28,5,0,14,3.5,6,Lc,0.2103877551020408,0.2196,0.38342857142857123,0.19607142857142856,0.5,20,10,30,3,7
1,16,31,1,7,11.467999999999991,19,63,14,20,16,116,12.68799999999999,3.659999999999997,5.367999999999996,1.646999999999999,20,15,9,6,69,19,20,6,6,0.5,38,5,6,Lc,0.18388405797101448,0.1926315789473684,0.26839999999999997,0.2744999999999999,0.5,20,10,30,3,7
1,16,32,1,6,12.38299999999999,11,51,6,2,81,97,15.920999999999987,5.062999999999996,2.2569999999999983,1.463999999999999,20,12,9,8,72,23,10,11,6,0,17,4.25,6,Lc,0.221125,0.22013043478260869,0.22569999999999998,0.1330909090909091,0.5,20,10,30,3,7
1,17,33,1,7,14.639999999999988,15,63,13,21,17,22,14.700999999999988,1.4029999999999991,6.465999999999995,2.3179999999999983,16,8,13,5,64,11,23,7,6,1,72,6,6,Lc,0.22970312499999998,0.12754545454545455,0.2811304347826087,0.33114285714285707,0.5,20,10,30,3,7
1,17,34,1,10,8.356999999999994,18,49,114,48,120,2,26.046999999999983,2.9889999999999977,1.4029999999999991,0.366,20,9,8,3,125,11,8,3,3,0,15,3.75,6,Lc,0.20837599999999998,0.2717272727272727,0.175375,0.122,0.5,20,10,30,3,7
1,18,35,1,5,15.432999999999987,17,78,44,48,39,1,17.811999999999987,0.8539999999999996,2.3179999999999983,1.7079999999999989,20,6,9,7,86,6,11,8,5,0.5,36,5.25,6,Lc,0.20711627906976743,0.14233333333333334,0.2107272727272727,0.2135,0.5,20,10,30,3,7
1,18,36,1,9,10.674999999999992,15,52,25,114,63,61,73.44399999999995,0.061,0.427,1.3419999999999992,20,1,2,5,336,1,2,5,4,0,15,3.75,6,Lc,0.2185833333333333,0.061,0.2135,0.2683999999999999,0.5,20,10,30,3,7
1,1,1,0,1,13.41999999999999,16,64,102,83,77,82,14.761999999999988,0.427,2.3179999999999983,2.805999999999998,20,4,11,10,69,4,15,16,3,0.5,20,2.75,6,Lc,0.21394202898550724,0.10675,0.15453333333333333,0.17537499999999998,0.5,20,10,30,3,8
1,1,2,0,5,11.284999999999991,15,51,46,39,38,48,11.83399999999999,0.244,3.4159999999999973,0.122,20,1,9,1,56,1,12,1,5,1,60,5,6,Lc,0.21132142857142855,0.244,0.2846666666666666,0.122,0.5,20,10,30,3,8
1,2,3,0,2,19.153999999999986,18,91,54,51,100,57,19.519999999999985,7.197999999999994,1.7689999999999988,1.0369999999999995,20,14,6,3,95,27,7,4,4,0.5,26,3.5,6,Lc,0.2054736842105263,0.26659259259259255,0.25271428571428567,0.2592499999999999,0.5,20,10,30,3,8
1,2,4,0,8,13.846999999999989,18,57,119,1,111,27,14.212999999999989,10.003999999999992,1.0369999999999995,3.537999999999997,20,16,4,9,60,56,5,13,2,0,15,3.75,6,Lc,0.2368833333333333,0.17864285714285713,0.2074,0.2721538461538461,0.5,20,10,30,3,8
1,3,5,0,8,18.299999999999986,19,79,116,115,113,80,18.360999999999986,2.1349999999999985,0.7929999999999997,6.404999999999995,20,9,1,12,80,12,2,22,2,0.5,15,2.25,6,Lc,0.22951249999999998,0.17791666666666664,0.3964999999999999,0.2911363636363636,0.5,20,10,30,3,8
1,3,6,0,10,11.101999999999991,18,47,91,94,99,85,12.01699999999999,2.3179999999999983,0.122,2.622999999999998,20,7,1,9,54,8,1,13,3,0.5,20,2.75,6,Lc,0.222537037037037,0.28974999999999995,0.122,0.20176923076923076,0.5,20,10,30,3,8
1,4,7,0,2,15.676999999999987,19,72,9,57,56,33,20.007999999999985,2.744999999999998,0.9149999999999996,4.452999999999997,20,9,4,11,87,16,4,18,4,0,19,4.75,6,Lc,0.22997701149425284,0.17156249999999995,0.22875,0.24738888888888885,0.5,20,10,30,3,8
1,4,8,0,7,5.7949999999999955,15,35,18,22,92,23,7.441999999999995,2.2569999999999983,5.062999999999996,0.7929999999999997,20,6,11,4,43,7,21,4,6,0.5,39,5.25,6,Lc,0.17306976744186045,0.32242857142857134,0.24109523809523806,0.19824999999999998,0.5,20,10,30,3,8
1,5,9,0,3,9.515999999999993,18,48,87,27,23,14,20.251999999999985,2.1349999999999985,2.9889999999999977,6.038999999999995,20,8,12,14,92,8,18,24,5,0,20,5,6,Lc,0.22013043478260869,0.266875,0.16605555555555554,0.251625,0.5,20,10,30,3,8
1,5,10,0,5,7.990999999999993,19,51,46,43,102,2,8.600999999999994,1.0979999999999994,3.3549999999999973,5.062999999999996,20,6,9,13,55,6,12,21,5,0,18,4.5,6,Lc,0.15638181818181818,0.183,0.2795833333333333,0.24109523809523806,0.5,20,10,30,3,8
1,6,11,1,5,10.186999999999992,16,49,38,41,56,40,10.247999999999992,4.330999999999997,0.7929999999999997,2.2569999999999983,17,16,3,6,50,22,3,9,5,0.5,34,4.75,6,Lc,0.20495999999999998,0.19686363636363635,0.2643333333333333,0.2507777777777777,0.5,20,10,30,3,8
1,6,12,1,10,11.162999999999991,18,65,88,95,36,31,12.62699999999999,1.1589999999999994,3.598999999999997,3.0499999999999976,20,4,9,8,71,5,11,10,3,0,16,4,6,Lc,0.1778450704225352,0.2318,0.32718181818181813,0.30499999999999994,0.5,20,10,30,3,8
1,7,13,1,6,13.35899999999999,18,62,5,4,31,7,16.774999999999988,1.2809999999999993,0.427,0.9149999999999996,20,7,1,4,78,7,1,5,6,0.5,41,5.75,6,Lc,0.21506410256410255,0.183,0.427,0.183,0.5,20,10,30,3,8
1,7,14,1,5,15.310999999999988,16,63,46,74,48,43,15.554999999999987,3.1109999999999975,1.585999999999999,2.0129999999999986,18,9,7,10,65,12,7,10,5,0.5,33,4.5,6,Lc,0.23930769230769228,0.25925,0.22657142857142856,0.2013,0.5,20,10,30,3,8
1,8,15,1,1,13.29799999999999,15,59,84,83,58,14,16.04299999999999,0.366,1.8299999999999987,0.427,20,3,5,1,69,3,6,1,3,0,16,4,6,Lc,0.23250724637681158,0.122,0.305,0.427,0.5,20,10,30,3,8
1,8,16,1,9,10.552999999999992,18,49,1,67,37,12,42.15099999999997,0.305,0.427,0.061,20,4,2,1,178,5,2,1,4,0,21,5.25,6,Lc,0.2368033707865168,0.061,0.2135,0.061,0.5,20,10,30,3,8
1,9,17,1,4,22.020999999999983,19,115,104,58,105,12,22.996999999999982,5.672999999999996,1.9519999999999986,0.244,20,13,8,1,120,20,9,1,2,0,14,3.5,6,Lc,0.19164166666666665,0.28364999999999996,0.21688888888888888,0.244,0.5,20,10,30,3,8
1,9,18,1,1,7.624999999999994,18,44,81,79,78,109,10.918999999999992,1.1589999999999994,1.3419999999999992,1.646999999999999,20,3,6,6,58,4,6,6,3,0.5,20,2.75,6,Lc,0.18825862068965515,0.28974999999999995,0.22366666666666665,0.27449999999999997,0.5,20,10,30,3,8
1,10,19,1,6,7.624999999999994,18,38,4,12,9,7,13.785999999999989,1.7079999999999989,0.6709999999999998,9.210999999999993,20,6,4,17,63,6,4,38,6,1,72,6,6,Lc,0.2188253968253968,0.2846666666666666,0.16775,0.24239473684210522,0.5,20,10,30,3,8
1,10,20,1,3,9.637999999999993,19,50,18,13,54,51,19.946999999999985,23.66799999999998,0.122,0.061,20,19,1,1,94,88,1,1,5,0,20,5,6,Lc,0.21220212765957444,0.26895454545454545,0.122,0.061,0.5,20,10,30,3,8
1,11,21,1,4,15.310999999999988,15,71,72,30,26,7,17.018999999999988,2.1959999999999984,8.112999999999994,1.7689999999999988,19,5,17,4,78,8,45,5,2,0,20,5,6,Lc,0.21819230769230766,0.27449999999999997,0.1802888888888889,0.3538,0.5,20,10,30,3,8
1,11,22,1,2,23.66799999999998,13,101,60,54,59,91,25.43699999999998,1.9519999999999986,3.842999999999997,1.585999999999999,20,7,11,5,111,7,17,6,4,0.5,27,3.75,6,Lc,0.22916216216216212,0.2788571428571428,0.22605882352941173,0.2643333333333333,0.5,20,10,30,3,8
1,12,23,1,6,9.820999999999993,14,54,7,12,102,105,10.125999999999992,4.879999999999996,2.1959999999999984,3.0499999999999976,16,11,8,9,56,16,10,15,6,0,16,4,6,Lc,0.18082142857142858,0.305,0.2196,0.2033333333333333,0.5,20,10,30,3,8
1,12,24,1,8,7.9299999999999935,14,37,110,112,120,111,10.613999999999992,3.2939999999999974,0.488,4.147999999999997,20,11,3,10,50,13,4,19,2,1,24,2,6,Lc,0.21227999999999997,0.2533846153846154,0.122,0.21831578947368419,0.5,20,10,30,3,8
1,13,25,1,2,20.800999999999984,16,88,58,57,53,84,21.410999999999984,3.1109999999999975,2.561999999999998,2.805999999999998,18,10,11,11,91,12,16,17,4,0.5,27,3.75,6,Lc,0.23528571428571426,0.25925,0.160125,0.16505882352941176,0.5,20,10,30,3,8
1,13,26,1,10,13.29799999999999,20,66,96,95,89,8,17.018999999999988,1.524999999999999,2.561999999999998,1.0979999999999994,20,8,9,5,78,10,12,6,3,0.5,24,3.75,6,Lc,0.21819230769230769,0.1525,0.2135,0.183,0.5,20,10,30,3,8
1,14,27,1,5,15.432999999999987,20,71,39,3,37,7,16.28699999999999,2.1959999999999984,0.122,2.1349999999999985,20,7,1,5,81,7,1,9,5,0,22,5.5,6,Lc,0.20107407407407407,0.31371428571428567,0.122,0.2372222222222222,0.5,20,10,30,3,8
1,14,28,1,10,14.273999999999988,14,83,95,96,87,26,14.456999999999988,0.366,1.463999999999999,4.940999999999996,15,4,4,11,84,4,4,21,3,0.5,23,3.5,6,Lc,0.17210714285714285,0.0915,0.3659999999999999,0.23528571428571426,0.5,20,10,30,3,8
1,15,29,1,7,13.54199999999999,16,69,21,14,19,17,13.602999999999989,4.269999999999997,1.2199999999999993,3.1109999999999975,17,11,6,8,70,20,7,11,6,1,72,6,6,Lc,0.19432857142857143,0.2135,0.17428571428571427,0.2828181818181818,0.5,20,10,30,3,8
1,15,30,1,3,30.072999999999976,14,138,96,31,32,62,31.597999999999974,0.061,4.391999999999997,1.7079999999999989,19,1,13,9,145,1,16,12,5,0,17,4.25,6,Lc,0.21791724137931032,0.061,0.27449999999999997,0.14233333333333334,0.5,20,10,30,3,8
1,16,31,1,5,14.883999999999988,15,68,69,97,79,103,22.142999999999983,0.9759999999999995,2.683999999999998,6.404999999999995,20,2,7,15,99,2,10,30,5,0,11,2.75,6,Lc,0.22366666666666665,0.4879999999999999,0.26839999999999997,0.2135,0.5,20,10,30,3,8
1,16,32,1,8,11.406999999999991,14,54,117,115,120,18,12.32199999999999,2.561999999999998,9.149999999999993,3.537999999999997,18,6,15,10,58,7,41,16,2,0.5,18,3,6,Lc,0.21244827586206894,0.36599999999999994,0.22317073170731705,0.221125,0.5,20,10,30,3,8
1,17,33,1,2,7.380999999999994,12,35,54,115,49,51,7.746999999999994,0.9149999999999996,1.8909999999999987,1.2809999999999993,14,4,6,5,37,4,9,6,4,0.5,26,3.5,6,Lc,0.20937837837837836,0.22874999999999998,0.2101111111111111,0.21349999999999997,0.5,20,10,30,3,8
1,17,34,1,3,15.737999999999987,13,70,28,8,3,33,16.34799999999999,35.440999999999974,9.088999999999993,0.061,16,19,15,1,73,151,34,1,5,0,22,5.5,6,Lc,0.22394520547945204,0.23470860927152315,0.2673235294117646,0.061,0.5,20,10,30,3,8
1,18,35,1,5,8.661999999999994,18,41,38,42,101,107,8.905999999999993,4.147999999999997,4.208999999999997,1.0979999999999994,19,14,11,1,42,16,15,1,5,0,14,3.5,6,Lc,0.21204761904761904,0.25925,0.28059999999999996,1.0979999999999994,0.5,20,10,30,3,8
1,18,36,1,8,15.920999999999987,19,66,113,111,119,65,18.421999999999986,1.0369999999999995,0.122,0.427,20,6,1,1,76,6,1,1,2,0.5,16,2.5,6,Lc,0.24239473684210525,0.17283333333333334,0.122,0.427,0.5,20,10,30,3,8
1,1,1,0,8,17.689999999999987,19,98,114,110,9,3,21.410999999999984,0.6709999999999998,10.613999999999992,2.561999999999998,20,2,16,7,109,3,39,9,2,0,16,4,6,Lc,0.19643119266055045,0.22366666666666665,0.27215384615384614,0.2846666666666666,0.5,20,10,30,3,9
1,1,2,0,9,10.674999999999992,20,51,62,66,87,69,11.71199999999999,2.3789999999999982,0.7929999999999997,2.805999999999998,20,7,2,8,56,9,2,10,4,0.5,27,3.75,6,Lc,0.20914285714285713,0.2643333333333333,0.39649999999999996,0.28059999999999996,0.5,20,10,30,3,9
1,2,3,0,7,17.445999999999987,18,69,40,60,106,20,22.996999999999982,0.6099999999999999,4.574999999999997,0.061,20,3,12,1,90,4,20,1,6,0,17,4.25,6,Lc,0.2555222222222222,0.1525,0.22874999999999998,0.061,0.5,20,10,30,3,9
1,2,4,0,9,19.092999999999986,17,92,71,70,35,82,19.519999999999985,1.585999999999999,3.3549999999999973,4.818999999999996,19,6,13,11,94,8,17,19,4,0,16,4,6,Lc,0.20765957446808508,0.19824999999999998,0.1973529411764706,0.2536315789473684,0.5,20,10,30,3,9
1,3,5,0,5,9.332999999999993,15,47,2,49,39,47,34.098999999999975,0.122,0.305,1.7079999999999989,20,1,2,11,160,1,2,12,5,0,20,5,6,Lc,0.21311875,0.122,0.1525,0.14233333333333334,0.5,20,10,30,3,9
1,3,6,0,1,12.68799999999999,18,56,77,13,100,66,25.74199999999998,7.014999999999994,0.244,0.244,20,16,2,2,113,26,2,2,3,0,15,3.75,6,Lc,0.22780530973451327,0.2698076923076923,0.122,0.122,0.5,20,10,30,3,9
1,4,7,0,10,16.530999999999988,20,91,95,94,102,19,17.506999999999987,2.622999999999998,2.744999999999998,1.0979999999999994,20,9,12,5,95,12,15,5,3,0,14,3.5,6,Lc,0.18428421052631577,0.2185833333333333,0.183,0.2196,0.5,20,10,30,3,9
1,4,8,0,8,10.613999999999992,19,62,111,120,83,77,13.785999999999989,1.524999999999999,4.818999999999996,0.427,20,7,10,2,78,9,15,2,2,0,10,2.5,6,Lc,0.17674358974358972,0.16944444444444445,0.32126666666666664,0.2135,0.5,20,10,30,3,9
1,5,9,0,9,13.48099999999999,16,59,2,26,117,64,55.143999999999956,0.061,0.061,0.061,20,1,1,1,231,1,1,1,4,0,17,4.25,6,Lc,0.2387186147186147,0.061,0.061,0.061,0.5,20,10,30,3,9
1,5,10,0,5,16.530999999999988,18,72,48,83,42,41,17.201999999999988,2.1959999999999984,0.488,1.463999999999999,20,5,3,6,77,7,4,7,5,0.5,33,4.5,6,Lc,0.22340259740259738,0.31371428571428567,0.122,0.20914285714285713,0.5,20,10,30,3,9
1,6,11,1,5,14.029999999999989,18,59,47,102,101,40,14.578999999999988,5.977999999999995,1.9519999999999986,3.781999999999997,20,14,8,11,62,23,11,16,5,0,14,3.5,6,Lc,0.23514516129032256,0.25991304347826083,0.17745454545454545,0.236375,0.5,20,10,30,3,9
1,6,12,1,2,16.774999999999988,18,78,55,54,53,52,17.872999999999987,2.1959999999999984,3.903999999999997,0.5489999999999999,20,9,10,3,83,10,17,3,4,1,48,4,6,Lc,0.21533734939759036,0.21959999999999996,0.2296470588235294,0.183,0.5,20,10,30,3,9
1,7,13,1,3,17.140999999999988,20,67,29,12,8,5,17.262999999999987,17.567999999999987,2.683999999999998,8.539999999999994,20,18,10,15,68,72,16,34,5,0.5,41,5.75,6,Lc,0.25386764705882353,0.24399999999999997,0.16774999999999998,0.2511764705882353,0.5,20,10,30,3,9
1,7,14,1,5,16.22599999999999,13,63,43,47,40,111,17.628999999999987,0.366,0.5489999999999999,3.2939999999999974,18,3,3,8,68,3,3,14,5,0.5,32,4.25,6,Lc,0.25925,0.122,0.183,0.23528571428571426,0.5,20,10,30,3,9
1,8,15,1,7,15.188999999999988,20,79,17,21,24,37,15.676999999999987,3.0499999999999976,2.0129999999999986,12.80999999999999,20,12,9,16,84,15,10,53,6,0.5,41,5.75,6,Lc,0.18663095238095237,0.2033333333333333,0.20129999999999998,0.24169811320754717,0.5,20,10,30,3,9
1,8,16,1,6,14.334999999999988,15,74,10,9,6,8,14.883999999999988,2.9279999999999977,1.4029999999999991,14.151999999999989,17,13,4,16,76,16,7,51,6,1,72,6,6,Lc,0.19584210526315787,0.183,0.2004285714285714,0.27749019607843134,0.5,20,10,30,3,9
1,9,17,1,6,14.822999999999988,17,68,9,7,6,10,15.432999999999987,3.537999999999997,0.7319999999999998,8.722999999999994,20,11,3,13,71,19,4,29,6,1,72,6,6,Lc,0.21736619718309858,0.18621052631578947,0.183,0.3007931034482758,0.5,20,10,30,3,9
1,9,18,1,1,7.807999999999994,14,40,84,100,80,70,8.234999999999994,1.524999999999999,2.683999999999998,0.9759999999999995,17,2,12,2,44,3,16,3,3,0,12,3,6,Lc,0.18715909090909089,0.5083333333333332,0.16774999999999998,0.32533333333333325,0.5,20,10,30,3,9
1,10,19,1,6,9.149999999999993,17,46,1,7,11,6,12.32199999999999,2.439999999999998,0.061,9.027999999999993,20,9,1,16,59,10,1,35,6,1,72,6,6,Lc,0.20884745762711862,0.24399999999999994,0.061,0.2579428571428571,0.5,20,10,30,3,9
1,10,20,1,10,14.029999999999989,15,64,86,15,91,87,17.750999999999987,0.9759999999999995,0.305,0.366,20,5,2,3,77,5,2,3,3,0.5,24,3.75,6,Lc,0.2305324675324675,0.19519999999999998,0.1525,0.122,0.5,20,10,30,3,9
1,11,21,1,2,16.34799999999999,16,65,56,54,87,13,18.543999999999986,2.561999999999998,2.0739999999999985,1.463999999999999,20,11,3,6,78,14,4,8,4,0,17,4.25,6,Lc,0.23774358974358972,0.183,0.5184999999999998,0.183,0.5,20,10,30,3,9
1,11,22,1,6,13.785999999999989,15,51,6,2,7,10,15.310999999999988,2.500999999999998,1.4029999999999991,2.0739999999999985,20,9,4,5,59,15,4,8,6,1,72,6,6,Lc,0.25950847457627113,0.16673333333333332,0.3507499999999999,0.2592499999999999,0.5,20,10,30,3,9
1,12,23,1,3,5.489999999999996,14,24,27,25,16,30,6.7099999999999955,0.122,2.744999999999998,0.427,19,1,8,3,31,1,12,3,5,0.5,36,5.25,6,Lc,0.2164516129032258,0.122,0.22875,0.14233333333333334,0.5,20,10,30,3,9
1,12,24,1,5,5.001999999999996,10,20,45,38,106,107,6.587999999999996,0.305,33.732999999999976,0.5489999999999999,17,4,18,4,28,4,134,4,5,0,14,3.5,6,Lc,0.23528571428571426,0.07625,0.25173880597014925,0.13724999999999998,0.5,20,10,30,3,9
1,13,25,1,9,14.395999999999988,20,66,62,63,115,38,16.28699999999999,5.550999999999996,2.9279999999999977,0.183,20,16,7,3,75,28,8,3,4,0,15,3.75,6,Lc,0.21716,0.19824999999999998,0.36599999999999994,0.061,0.5,20,10,30,3,9
1,13,26,1,3,8.661999999999994,15,35,11,96,31,91,34.891999999999975,2.1349999999999985,0.122,0.122,20,6,2,1,140,7,2,1,5,0,17,4.25,6,Lc,0.2492285714285714,0.30499999999999994,0.061,0.122,0.5,20,10,30,3,9
1,14,27,1,6,11.101999999999991,18,64,3,5,10,105,11.467999999999991,4.025999999999997,5.062999999999996,4.818999999999996,20,14,13,15,66,21,19,19,6,0.5,38,5,6,Lc,0.17375757575757575,0.1917142857142857,0.2664736842105263,0.2536315789473684,0.5,20,10,30,3,9
1,14,28,1,3,11.89499999999999,18,51,31,25,13,27,13.17599999999999,3.0499999999999976,3.842999999999997,2.1959999999999984,20,7,9,10,57,10,16,13,5,0.5,36,5.25,6,Lc,0.23115789473684212,0.305,0.24018749999999997,0.16892307692307693,0.5,20,10,30,3,9
1,15,29,1,3,10.857999999999992,16,55,27,14,28,31,14.090999999999989,12.44399999999999,2.561999999999998,0.5489999999999999,20,15,7,2,70,44,9,2,5,0.5,36,5.25,6,Lc,0.20129999999999998,0.28281818181818175,0.28466666666666657,0.27449999999999997,0.5,20,10,30,3,9
1,15,30,1,5,17.384999999999987,17,68,41,106,107,47,17.689999999999987,9.393999999999993,1.7689999999999988,5.550999999999996,19,16,3,14,70,38,4,25,5,0,14,3.5,6,Lc,0.25271428571428567,0.24721052631578944,0.4422499999999999,0.22203999999999996,0.5,20,10,30,3,9
1,16,31,1,3,16.10399999999999,19,72,36,35,34,98,17.201999999999988,0.122,10.857999999999992,6.160999999999995,20,1,16,11,80,1,43,16,5,0.5,32,4.25,6,Lc,0.215025,0.122,0.2525116279069767,0.3850624999999999,0.5,20,10,30,3,9
1,16,32,1,7,15.554999999999987,15,62,17,15,19,113,18.299999999999986,0.122,4.269999999999997,3.1719999999999975,20,1,7,9,76,1,11,10,6,0.5,38,5,6,Lc,0.24078947368421053,0.122,0.3881818181818181,0.3172,0.5,20,10,30,3,9
1,17,33,1,7,19.458999999999985,15,96,17,22,24,19,20.556999999999984,2.2569999999999983,0.122,6.099999999999995,18,8,1,13,99,10,1,30,6,1,72,6,6,Lc,0.20764646464646463,0.22569999999999998,0.122,0.2033333333333333,0.5,20,10,30,3,9
1,17,34,1,5,9.576999999999993,14,50,38,41,47,72,11.101999999999991,0.305,4.025999999999997,3.2939999999999974,18,1,14,11,54,1,21,14,5,0.5,34,4.75,6,Lc,0.20559259259259258,0.305,0.1917142857142857,0.23528571428571426,0.5,20,10,30,3,9
1,1,1,0,5,9.271999999999993,15,41,44,47,42,23,11.83399999999999,0.427,0.305,1.9519999999999986,20,3,2,7,56,5,2,9,5,0.5,36,5.25,6,Lc,0.21132142857142855,0.0854,0.1525,0.21688888888888888,0.5,20,10,30,3,10
1,1,2,0,9,15.676999999999987,19,82,69,32,61,72,16.16499999999999,3.0499999999999976,1.646999999999999,0.366,20,8,5,3,84,9,7,4,4,0.5,29,4.25,6,Lc,0.1924404761904762,0.33888888888888885,0.23528571428571426,0.0915,0.5,20,10,30,3,10
1,2,3,0,5,13.663999999999989,18,63,39,44,43,48,14.029999999999989,0.183,1.524999999999999,1.9519999999999986,20,1,8,6,65,1,8,6,5,1,60,5,6,Lc,0.21584615384615383,0.183,0.190625,0.3253333333333333,0.5,20,10,30,3,10
1,2,4,0,3,13.29799999999999,14,64,25,106,92,8,18.787999999999986,5.306999999999996,8.478999999999994,15.798999999999987,20,16,14,17,79,28,38,69,5,0,16,4,6,Lc,0.23782278481012656,0.18953571428571425,0.2231315789473684,0.2289710144927536,0.5,20,10,30,3,10
1,3,5,0,7,7.9299999999999935,15,43,18,14,20,23,10.857999999999992,4.025999999999997,1.463999999999999,0.6099999999999999,20,14,7,5,58,20,8,5,6,1,72,6,6,Lc,0.18720689655172412,0.20129999999999998,0.183,0.122,0.5,20,10,30,3,10
1,3,6,0,5,11.71199999999999,18,56,46,47,59,44,14.151999999999989,1.2809999999999993,2.9279999999999977,1.0979999999999994,20,8,8,5,67,8,9,5,5,0.5,34,4.75,6,Lc,0.2112238805970149,0.160125,0.32533333333333325,0.2196,0.5,20,10,30,3,10
1,4,7,0,2,16.28699999999999,18,83,58,54,104,96,20.373999999999985,2.561999999999998,2.805999999999998,0.488,20,10,12,3,100,13,17,3,4,0,13,3.25,6,Lc,0.20373999999999998,0.19707692307692307,0.16505882352941176,0.16266666666666665,0.5,20,10,30,3,10
1,4,8,0,9,16.530999999999988,20,84,67,72,8,63,16.896999999999988,1.524999999999999,2.3179999999999983,0.183,20,5,7,2,86,7,8,2,4,0.5,30,4.5,6,Lc,0.1964767441860465,0.21785714285714286,0.28974999999999995,0.0915,0.5,20,10,30,3,10
1,5,9,0,6,23.42399999999998,15,105,1,12,69,25,25.13199999999998,0.7929999999999997,7.563999999999994,5.550999999999996,20,5,14,9,113,5,34,17,6,0,21,5.25,6,Lc,0.2224070796460177,0.1586,0.2224705882352941,0.3265294117647058,0.5,20,10,30,3,10
1,5,10,0,1,11.223999999999991,17,46,78,84,37,108,11.284999999999991,3.3549999999999973,2.439999999999998,3.659999999999997,18,8,5,10,47,14,8,16,3,0,13,3.25,6,Lc,0.2401063829787234,0.23964285714285713,0.30499999999999994,0.22874999999999998,0.5,20,10,30,3,10
1,6,11,1,2,7.990999999999993,16,39,57,53,108,9,9.393999999999993,1.0979999999999994,1.0979999999999994,2.2569999999999983,20,5,1,7,45,6,1,7,4,0,16,4,6,Lc,0.20875555555555556,0.183,1.0979999999999994,0.32242857142857134,0.5,20,10,30,3,10
1,6,12,1,9,13.23699999999999,17,62,119,120,13,93,123.28100000000526,33.183999999999976,44.102999999999966,0.061,20,18,18,1,520,134,187,1,4,0,13,3.25,6,Lc,0.2370788461538461,0.24764179104477607,0.23584491978609623,0.061,0.5,20,10,30,3,10
1,7,13,1,9,13.846999999999989,15,59,64,24,21,118,14.273999999999988,16.22599999999999,0.183,9.393999999999993,17,19,1,17,61,76,1,40,4,0,18,4.5,6,Lc,0.23399999999999999,0.2135,0.183,0.23484999999999998,0.5,20,10,30,3,10
1,7,14,1,2,7.441999999999994,16,37,4,51,58,49,11.040999999999991,0.366,0.8539999999999996,5.428999999999996,20,3,2,12,52,3,2,22,4,0.5,30,4.5,6,Lc,0.21232692307692305,0.122,0.4269999999999999,0.24677272727272725,0.5,20,10,30,3,10
1,8,15,1,1,11.71199999999999,18,58,75,117,78,73,11.77299999999999,12.56599999999999,0.7319999999999998,1.2199999999999993,19,19,4,6,59,46,5,7,3,0.5,20,2.75,6,Lc,0.19954237288135593,0.2731739130434782,0.1464,0.1742857142857143,0.5,20,10,30,3,10
1,8,16,1,7,5.062999999999996,13,30,14,19,100,29,8.356999999999994,0.122,1.4029999999999991,2.622999999999998,20,2,5,5,46,2,6,7,6,0,19,4.75,6,Lc,0.18167391304347827,0.061,0.23383333333333328,0.37471428571428567,0.5,20,10,30,3,10
1,9,17,1,10,14.090999999999989,20,68,14,90,95,88,15.554999999999987,0.7319999999999998,2.500999999999998,4.330999999999997,20,3,9,14,75,3,11,17,3,0.5,24,3.75,6,Lc,0.20739999999999997,0.244,0.22736363636363635,0.2547647058823529,0.5,20,10,30,3,10
1,9,18,1,2,8.844999999999994,16,47,104,60,50,98,11.528999999999991,0.122,0.183,3.781999999999997,20,1,2,11,60,1,2,19,4,0,12,3,6,Lc,0.19215,0.122,0.0915,0.19905263157894737,0.5,20,10,30,3,10
1,10,19,1,5,10.979999999999992,18,45,13,21,47,40,12.19999999999999,2.683999999999998,0.5489999999999999,2.8669999999999978,20,9,2,9,52,11,4,10,5,0,22,5.5,6,Lc,0.23461538461538461,0.24399999999999994,0.13724999999999998,0.28669999999999995,0.5,20,10,30,3,10
1,10,20,1,3,8.417999999999994,18,39,32,26,25,2,8.966999999999993,0.061,0.244,5.428999999999996,20,1,2,13,42,1,2,22,5,0.5,36,5.25,6,Lc,0.2135,0.061,0.122,0.24677272727272725,0.5,20,10,30,3,10
1,11,21,1,8,13.05399999999999,17,52,110,119,120,45,13.17599999999999,1.3419999999999992,2.622999999999998,1.4029999999999991,19,6,8,6,54,6,9,7,2,0.5,17,2.75,6,Lc,0.24399999999999997,0.2236666666666666,0.29144444444444445,0.20042857142857143,0.5,20,10,30,3,10
1,11,22,1,3,14.822999999999988,16,71,57,34,25,33,16.16499999999999,0.6709999999999998,0.122,0.366,20,2,2,3,77,2,2,4,5,0.5,34,4.75,6,Lc,0.20993506493506492,0.3355,0.061,0.0915,0.5,20,10,30,3,10
1,12,23,1,7,8.173999999999994,17,43,14,74,47,16,16.16499999999999,1.8909999999999987,1.0369999999999995,0.183,20,6,2,3,77,8,2,3,6,0,20,5,6,Lc,0.20993506493506492,0.236375,0.5184999999999997,0.061,0.5,20,10,30,3,10
1,12,24,1,3,11.528999999999991,19,58,34,27,31,93,12.87099999999999,0.7929999999999997,1.463999999999999,0.9759999999999995,20,5,6,5,65,5,7,5,5,0.5,33,4.5,6,Lc,0.1980153846153846,0.1586,0.20914285714285713,0.19519999999999998,0.5,20,10,30,3,10
1,13,25,1,3,25.80299999999998,19,125,78,35,30,26,26.59599999999998,0.427,0.122,0.7319999999999998,20,3,2,3,127,3,2,3,5,0.5,33,4.5,6,Lc,0.20941732283464565,0.14233333333333334,0.061,0.244,0.5,20,10,30,3,10
1,13,26,1,2,8.173999999999994,19,44,53,58,60,91,8.234999999999994,4.879999999999996,0.183,7.380999999999994,20,7,2,17,45,10,2,38,4,0.5,27,3.75,6,Lc,0.183,0.4879999999999999,0.0915,0.19423684210526315,0.5,20,10,30,3,10
1,14,27,1,8,16.835999999999988,19,72,18,112,120,119,19.092999999999986,1.646999999999999,0.488,1.3419999999999992,20,6,2,4,78,6,2,4,2,0.5,18,3,6,Lc,0.24478205128205124,0.27449999999999997,0.244,0.33549999999999996,0.5,20,10,30,3,10
1,14,28,1,6,11.406999999999991,17,51,1,8,42,7,14.273999999999988,0.5489999999999999,7.9299999999999935,0.122,20,4,17,1,66,4,37,1,6,0.5,41,5.75,6,Lc,0.21627272727272726,0.13724999999999998,0.2143243243243243,0.122,0.5,20,10,30,3,10
1,15,29,1,9,19.153999999999986,18,95,67,64,69,32,20.556999999999984,0.305,4.086999999999997,1.585999999999999,20,2,16,5,99,2,22,6,4,0.5,29,4.25,6,Lc,0.20764646464646463,0.1525,0.18577272727272726,0.2643333333333333,0.5,20,10,30,3,10
1,15,30,1,7,5.428999999999996,13,30,18,13,19,97,7.8689999999999944,5.184999999999996,4.574999999999997,2.805999999999998,20,17,16,8,41,32,19,8,6,0.5,38,5,6,Lc,0.1919268292682927,0.16203125,0.2407894736842105,0.3507499999999999,0.5,20,10,30,3,10
1,16,31,1,2,15.005999999999988,17,73,52,55,51,49,16.22599999999999,0.244,1.7689999999999988,1.585999999999999,20,2,5,6,80,2,5,7,4,1,48,4,6,Lc,0.20282499999999998,0.122,0.35379999999999995,0.22657142857142853,0.5,20,10,30,3,10
1,16,32,1,4,9.454999999999993,17,47,100,104,103,101,9.759999999999993,2.622999999999998,1.8909999999999987,0.061,19,8,7,1,49,10,8,1,2,1,24,2,6,Lc,0.19918367346938776,0.2623,0.23637499999999995,0.061,0.5,20,10,30,3,10
1,17,33,1,5,9.698999999999993,15,54,37,48,46,10,16.04299999999999,0.061,0.366,11.406999999999991,20,1,3,17,88,1,3,54,5,0.5,36,5.25,6,Lc,0.18230681818181818,0.061,0.122,0.21124074074074073,0.5,20,10,30,3,10
1,17,34,1,2,10.247999999999992,18,56,50,57,54,53,15.24999999999999,0.122,0.122,0.427,20,2,1,3,75,2,1,3,4,1,48,4,6,Lc,0.2033333333333333,0.061,0.122,0.14233333333333334,0.5,20,10,30,3,10
1,1,1,0,8,13.41999999999999,18,64,119,115,28,111,13.846999999999989,0.305,3.1109999999999975,1.463999999999999,20,2,10,6,66,2,14,6,2,0.5,11,2.75,6,Hc,0.2098030303030303,0.1525,0.2222142857142857,0.244,0.5,20,10,30,3,1
1,1,2,0,6,19.031999999999986,20,87,7,1,9,12,21.532999999999983,6.770999999999995,1.2199999999999993,0.305,20,13,6,2,96,21,6,2,6,1,72,6,6,Hc,0.22430208333333332,0.3224285714285714,0.2033333333333333,0.1525,0.5,20,10,30,3,1
1,2,3,0,2,15.310999999999988,19,61,58,23,15,50,17.750999999999987,3.598999999999997,2.8669999999999978,1.463999999999999,20,13,10,7,71,20,12,7,4,0,20,5,6,Hc,0.2500140845070422,0.17995,0.23891666666666664,0.20914285714285713,0.5,20,10,30,3,1
1,2,4,0,6,5.245999999999996,12,26,4,1,5,30,7.136999999999995,3.2329999999999974,5.306999999999996,0.7319999999999998,18,9,13,4,32,10,22,4,6,0.5,23,5.75,6,Hc,0.22303125,0.3233,0.24122727272727268,0.183,0.5,20,10,30,3,1
1,3,5,0,9,12.74899999999999,16,67,68,63,43,38,13.846999999999989,3.476999999999997,0.488,4.269999999999997,18,8,3,13,69,8,3,21,4,0,18,4.5,6,Hc,0.20068115942028983,0.4346249999999999,0.16266666666666665,0.2033333333333333,0.5,20,10,30,3,1
1,3,6,0,7,15.310999999999988,13,60,19,14,24,22,17.933999999999987,0.7319999999999998,0.244,1.646999999999999,20,3,1,10,71,5,1,11,6,1,72,6,6,Hc,0.2525915492957746,0.1464,0.244,0.14972727272727274,0.5,20,10,30,3,1
1,4,7,0,7,5.489999999999996,14,28,15,16,23,20,10.613999999999992,1.585999999999999,0.366,9.881999999999993,20,7,4,15,48,8,4,37,6,1,72,6,6,Hc,0.221125,0.19824999999999998,0.0915,0.26708108108108103,0.5,20,10,30,3,1
1,4,8,0,3,13.41999999999999,11,51,31,49,36,88,14.944999999999988,4.086999999999997,0.061,1.8909999999999987,17,13,1,6,58,17,1,7,5,0,17,4.25,6,Hc,0.2576724137931034,0.24041176470588235,0.061,0.27014285714285713,0.5,20,10,30,3,1
1,5,9,0,9,17.384999999999987,18,91,62,66,67,104,18.055999999999987,2.0739999999999985,1.3419999999999992,0.488,20,8,6,2,97,9,7,2,4,0.5,14,3.5,6,Hc,0.1861443298969072,0.23044444444444442,0.1917142857142857,0.244,0.5,20,10,30,3,1
1,5,10,0,5,12.38299999999999,14,73,40,6,56,60,14.029999999999989,31.353999999999974,9.698999999999993,0.122,19,19,16,1,80,136,48,1,5,0,19,4.75,6,Hc,0.175375,0.2305441176470588,0.20206249999999998,0.122,0.5,20,10,30,3,1
1,6,11,1,6,4.452999999999997,12,31,3,12,7,56,5.977999999999996,1.2809999999999993,0.8539999999999996,5.855999999999995,20,6,7,14,41,7,7,27,6,0.5,22,5.5,6,Hc,0.14580487804878048,0.183,0.122,0.21688888888888885,0.5,20,10,30,3,1
1,6,12,1,7,8.295999999999994,10,45,20,19,22,98,9.759999999999993,0.7929999999999997,2.9889999999999977,2.500999999999998,15,4,8,6,51,4,12,10,6,0.5,20,5,6,Hc,0.19137254901960785,0.19824999999999998,0.2490833333333333,0.2501,0.5,20,10,30,3,1
1,7,13,1,6,10.918999999999992,19,60,1,2,6,100,12.50499999999999,0.061,0.7929999999999997,2.683999999999998,20,1,5,9,66,1,5,11,6,0.5,20,5,6,Hc,0.18946969696969695,0.061,0.1586,0.24399999999999997,0.5,20,10,30,3,1
1,7,14,1,3,11.650999999999991,18,63,33,29,71,35,11.95599999999999,0.6099999999999999,3.842999999999997,1.2199999999999993,20,3,9,5,65,3,12,5,5,0.5,19,4.75,6,Hc,0.18393846153846152,0.20333333333333334,0.32025,0.244,0.5,20,10,30,3,1
1,8,15,1,7,9.149999999999993,18,57,18,19,21,34,9.393999999999993,1.2809999999999993,0.9759999999999995,4.574999999999997,20,7,4,11,59,7,4,21,6,0.5,23,5.75,6,Hc,0.15922033898305085,0.183,0.244,0.21785714285714283,0.5,20,10,30,3,1
1,8,16,1,6,9.271999999999993,16,47,2,3,12,90,10.491999999999992,3.598999999999997,0.427,2.805999999999998,20,10,5,7,54,15,5,9,6,0.5,21,5.25,6,Hc,0.1942962962962963,0.2399333333333333,0.0854,0.31177777777777776,0.5,20,10,30,3,1
1,9,17,1,6,11.467999999999991,14,44,11,4,60,6,11.77299999999999,1.0979999999999994,5.367999999999996,3.659999999999997,16,2,10,10,46,2,27,17,6,0.5,22,5.5,6,Hc,0.2559347826086956,0.5489999999999999,0.1988148148148148,0.2152941176470588,0.5,20,10,30,3,1
1,9,18,1,1,7.8689999999999936,14,34,73,83,77,63,8.356999999999994,1.0979999999999994,3.476999999999997,8.173999999999994,18,6,12,16,38,6,14,40,3,0.5,13,3.25,6,Hc,0.21992105263157893,0.183,0.24835714285714283,0.20434999999999998,0.5,20,10,30,3,1
1,10,19,1,3,26.16899999999998,13,110,34,29,36,111,26.29099999999998,4.086999999999997,7.319999999999994,2.744999999999998,14,11,15,6,111,18,36,8,5,0.5,17,4.25,6,Hc,0.23685585585585583,0.22705555555555557,0.2033333333333333,0.3431249999999999,0.5,20,10,30,3,1
1,10,20,1,6,7.746999999999994,16,44,1,5,106,4,8.966999999999993,1.585999999999999,0.305,2.622999999999998,20,6,1,10,50,6,1,14,6,0.5,20,5,6,Hc,0.17934,0.2643333333333333,0.305,0.18735714285714286,0.5,20,10,30,3,1
1,11,21,1,7,14.944999999999988,16,67,19,17,16,23,15.554999999999987,4.147999999999997,4.086999999999997,0.9759999999999995,20,11,12,6,71,17,21,6,6,1,72,6,6,Hc,0.21908450704225352,0.244,0.1946190476190476,0.16266666666666665,0.5,20,10,30,3,1
1,11,22,1,6,8.478999999999994,14,42,11,4,9,55,10.247999999999992,0.8539999999999996,3.2939999999999974,3.598999999999997,20,4,9,9,53,4,12,12,6,0.5,22,5.5,6,Hc,0.1933584905660377,0.2135,0.27449999999999997,0.2999166666666666,0.5,20,10,30,3,1
1,12,23,1,7,13.907999999999989,20,68,21,18,17,23,14.090999999999989,0.244,5.428999999999996,2.8669999999999978,20,2,15,9,69,2,31,14,6,1,72,6,6,Hc,0.20421739130434782,0.122,0.1751290322580645,0.20478571428571427,0.5,20,10,30,3,1
1,12,24,1,9,10.613999999999992,17,58,68,65,64,8,10.674999999999992,3.476999999999997,4.086999999999997,12.07799999999999,18,6,10,16,59,10,14,53,4,0.5,18,4.5,6,Hc,0.1809322033898305,0.34769999999999995,0.2919285714285714,0.22788679245283017,0.5,20,10,30,3,1
1,13,25,1,9,31.780999999999974,12,131,66,71,37,99,33.488999999999976,0.9759999999999995,2.439999999999998,3.4159999999999973,18,7,8,6,138,7,9,9,4,0,15,3.75,6,Hc,0.2426739130434782,0.13942857142857143,0.271111111111111,0.37955555555555553,0.5,20,10,30,3,1
1,13,26,1,3,5.123999999999996,10,22,111,13,116,15,26.22999999999998,26.59599999999998,3.598999999999997,0.6709999999999998,20,19,14,5,113,96,16,5,5,0,16,4,6,Hc,0.23212389380530973,0.27704166666666663,0.22493749999999998,0.13419999999999999,0.5,20,10,30,3,1
1,14,27,1,5,38.00299999999997,14,170,37,73,40,119,38.30799999999997,4.208999999999997,2.805999999999998,4.452999999999997,16,9,11,9,172,17,14,14,5,0,15,3.75,6,Hc,0.22272093023255812,0.24758823529411758,0.20042857142857143,0.31807142857142856,0.5,20,10,30,3,1
1,14,28,1,7,13.05399999999999,14,66,19,22,17,13,13.602999999999989,1.1589999999999994,0.6709999999999998,15.432999999999987,16,6,3,17,69,6,3,68,6,1,72,6,6,Hc,0.19714492753623186,0.19316666666666665,0.22366666666666665,0.22695588235294117,0.5,20,10,30,3,1
1,15,29,1,7,11.101999999999991,20,55,20,16,46,112,15.737999999999989,0.183,0.7319999999999998,0.7929999999999997,20,1,4,3,69,1,4,3,6,0,19,4.75,6,Hc,0.2280869565217391,0.183,0.183,0.2643333333333333,0.5,20,10,30,3,1
1,15,30,1,3,3.2939999999999974,8,21,36,33,26,31,5.245999999999996,0.6709999999999998,0.9759999999999995,0.7929999999999997,19,4,6,4,35,4,6,4,5,1,60,5,6,Hc,0.1498857142857143,0.16775,0.16266666666666665,0.19824999999999998,0.5,20,10,30,3,1
1,16,31,1,5,5.245999999999996,11,25,13,40,47,24,26.22999999999998,0.244,0.6709999999999998,0.061,20,2,4,1,132,2,4,1,5,0,22,5.5,6,Hc,0.1987121212121212,0.122,0.16775,0.061,0.5,20,10,30,3,1
1,16,32,1,6,6.343999999999995,12,37,4,10,11,26,9.149999999999993,0.305,0.061,4.879999999999996,19,2,1,14,45,2,1,22,6,0.5,23,5.75,6,Hc,0.2033333333333333,0.1525,0.061,0.2218181818181818,0.5,20,10,30,3,1
1,17,33,1,10,14.578999999999988,15,73,96,94,39,89,14.700999999999988,0.6099999999999999,3.1719999999999975,0.9759999999999995,16,2,7,5,74,2,9,6,3,0.5,14,3.5,6,Hc,0.19866216216216215,0.305,0.3524444444444444,0.16266666666666665,0.5,20,10,30,3,1
1,17,34,1,7,20.068999999999985,15,87,15,14,79,16,20.739999999999984,0.5489999999999999,7.624999999999994,3.720999999999997,19,2,12,12,91,4,25,17,6,0.5,21,5.25,6,Hc,0.2279120879120879,0.13724999999999998,0.305,0.21888235294117647,0.5,20,10,30,3,1
1,18,35,1,6,8.966999999999993,16,43,2,7,3,65,9.759999999999993,9.210999999999993,0.061,1.4029999999999991,20,18,1,6,48,54,1,7,6,0.5,22,5.5,6,Hc,0.2033333333333333,0.17057407407407407,0.061,0.20042857142857143,0.5,20,10,30,3,1
1,18,36,1,5,9.393999999999993,11,43,46,38,109,37,11.83399999999999,0.8539999999999996,1.0369999999999995,6.160999999999995,20,3,3,15,55,3,4,27,5,0.5,17,4.25,6,Hc,0.21516363636363636,0.2846666666666667,0.25925,0.22818518518518516,0.5,20,10,30,3,1
1,1,1,0,4,14.761999999999988,18,74,98,102,24,96,15.432999999999987,1.524999999999999,2.9889999999999977,4.147999999999997,20,5,11,12,77,5,18,22,2,0,13,3.25,6,Hc,0.20042857142857143,0.305,0.16605555555555554,0.18854545454545452,0.5,20,10,30,3,2
1,1,2,0,9,26.96199999999998,16,117,71,110,65,35,29.950999999999976,1.3419999999999992,0.061,1.7079999999999989,20,4,1,7,125,4,1,8,4,0,15,3.75,6,Hc,0.239608,0.33549999999999996,0.061,0.2135,0.5,20,10,30,3,2
1,2,3,0,7,9.515999999999993,19,54,20,15,21,114,9.881999999999993,2.683999999999998,3.598999999999997,2.622999999999998,20,9,10,7,56,13,14,8,6,0.5,20,5,6,Hc,0.1764642857142857,0.20646153846153845,0.25707142857142856,0.32787499999999997,0.5,20,10,30,3,2
1,2,4,0,5,10.247999999999992,16,54,99,97,48,44,11.95599999999999,0.6099999999999999,0.061,0.061,20,1,1,1,60,2,1,1,5,0,14,3.5,6,Hc,0.19926666666666665,0.305,0.061,0.061,0.5,20,10,30,3,2
1,3,5,0,7,11.71199999999999,17,50,20,18,22,23,13.54199999999999,0.427,13.41999999999999,1.1589999999999994,20,1,18,7,62,1,58,7,6,1,72,6,6,Hc,0.21841935483870964,0.427,0.23137931034482756,0.16557142857142856,0.5,20,10,30,3,2
1,3,6,0,6,18.177999999999987,19,87,8,6,2,9,18.543999999999986,0.183,13.35899999999999,3.537999999999997,20,1,15,11,90,1,53,18,6,1,72,6,6,Hc,0.20604444444444442,0.183,0.2520566037735849,0.19655555555555554,0.5,20,10,30,3,2
1,4,7,0,6,11.83399999999999,19,47,3,11,77,67,11.89499999999999,0.183,6.221999999999995,8.173999999999994,20,2,13,16,48,3,28,37,6,0,19,4.75,6,Hc,0.24781249999999996,0.061,0.2222142857142857,0.2209189189189189,0.5,20,10,30,3,2
1,4,8,0,10,18.238999999999987,11,71,95,40,37,19,20.739999999999984,0.061,6.465999999999995,1.9519999999999986,19,1,14,8,79,1,24,8,3,0,19,4.75,6,Hc,0.2625316455696202,0.061,0.26941666666666664,0.244,0.5,20,10,30,3,2
1,5,9,0,3,24.09499999999998,14,117,34,36,29,35,24.21699999999998,0.6709999999999998,1.646999999999999,0.7319999999999998,15,3,6,3,118,4,6,3,5,1,60,5,6,Hc,0.20522881355932202,0.16775,0.27449999999999997,0.24399999999999997,0.5,20,10,30,3,2
1,5,10,0,7,11.040999999999991,19,53,23,19,103,89,13.724999999999989,0.183,1.1589999999999994,1.8909999999999987,20,2,3,7,66,2,3,8,6,0,17,4.25,6,Hc,0.20795454545454545,0.0915,0.3863333333333333,0.23637499999999997,0.5,20,10,30,3,2
1,6,11,1,9,8.661999999999994,18,41,71,61,72,64,12.38299999999999,0.061,3.9649999999999967,0.6099999999999999,20,1,9,3,57,1,10,3,4,1,48,4,6,Hc,0.21724561403508771,0.061,0.3964999999999999,0.20333333333333334,0.5,20,10,30,3,2
1,6,12,1,3,6.709999999999995,14,28,36,27,28,25,7.075999999999994,0.244,0.061,0.122,16,1,1,1,30,1,1,1,5,1,60,5,6,Hc,0.23586666666666664,0.244,0.061,0.122,0.5,20,10,30,3,2
1,7,13,1,6,8.112999999999994,16,40,3,1,6,49,10.125999999999992,8.539999999999994,2.683999999999998,3.2329999999999974,20,15,9,9,50,41,12,16,6,0.5,22,5.5,6,Hc,0.20252,0.20829268292682926,0.22366666666666665,0.20206249999999998,0.5,20,10,30,3,2
1,7,14,1,5,7.441999999999994,16,46,92,110,14,113,31.475999999999974,10.308999999999992,1.4029999999999991,3.4159999999999973,20,19,4,9,154,52,5,11,5,0,13,3.25,6,Hc,0.20438961038961037,0.19824999999999998,0.28059999999999996,0.31054545454545446,0.5,20,10,30,3,2
1,8,15,1,3,6.465999999999995,19,38,32,30,68,33,6.648999999999995,4.7579999999999965,11.589999999999991,2.805999999999998,20,15,17,11,40,25,40,15,5,0.5,19,4.75,6,Hc,0.166225,0.19032,0.28974999999999995,0.18706666666666666,0.5,20,10,30,3,2
1,8,16,1,6,8.539999999999994,17,47,3,2,11,12,12.992999999999991,0.9759999999999995,0.6709999999999998,5.184999999999996,20,7,3,13,72,7,3,20,6,1,72,6,6,Hc,0.18045833333333333,0.13942857142857143,0.22366666666666665,0.25925,0.5,20,10,30,3,2
1,9,17,1,8,29.279999999999976,15,141,119,117,118,68,31.963999999999974,2.1959999999999984,0.061,3.9649999999999967,20,8,1,12,157,9,1,21,2,0.5,10,2.5,6,Hc,0.20359235668789805,0.24399999999999997,0.061,0.18880952380952382,0.5,20,10,30,3,2
1,9,18,1,7,10.308999999999992,13,48,15,14,20,21,12.74899999999999,0.488,0.366,2.744999999999998,20,5,2,8,59,5,2,10,6,1,72,6,6,Hc,0.21608474576271186,0.09759999999999999,0.183,0.27449999999999997,0.5,20,10,30,3,2
1,10,19,1,3,20.129999999999985,16,89,32,61,15,30,25.61999999999998,2.9279999999999977,5.611999999999996,0.5489999999999999,20,7,16,4,109,7,26,4,5,0,20,5,6,Hc,0.235045871559633,0.4182857142857142,0.21584615384615383,0.13724999999999998,0.5,20,10,30,3,2
1,10,20,1,2,11.589999999999991,13,61,49,87,91,96,11.650999999999991,14.639999999999988,10.430999999999992,0.488,14,18,17,4,62,53,45,5,4,0.5,13,3.25,6,Hc,0.18791935483870967,0.2762264150943396,0.23179999999999998,0.09759999999999999,0.5,20,10,30,3,2
1,11,21,1,6,6.8929999999999945,17,44,7,12,11,32,7.197999999999994,0.061,0.244,6.038999999999995,19,1,2,11,46,1,2,17,6,0.5,23,5.75,6,Hc,0.1564782608695652,0.061,0.122,0.355235294117647,0.5,20,10,30,3,2
1,11,22,1,7,18.360999999999986,15,80,14,63,22,71,19.946999999999985,2.500999999999998,0.305,2.500999999999998,20,12,2,6,86,14,2,11,6,0,20,5,6,Hc,0.23194186046511625,0.17864285714285713,0.1525,0.22736363636363635,0.5,20,10,30,3,2
1,12,23,1,1,3.2939999999999974,7,17,77,74,75,83,3.5989999999999975,1.8299999999999987,1.2199999999999993,3.842999999999997,10,8,4,11,20,8,4,27,3,1,36,3,6,Hc,0.17995,0.22874999999999995,0.30499999999999994,0.14233333333333334,0.5,20,10,30,3,2
1,12,24,1,10,9.271999999999993,16,40,1,94,88,41,14.76199999999999,0.061,1.1589999999999994,2.8669999999999978,20,1,7,7,63,1,9,12,3,0,17,4.25,6,Hc,0.23431746031746029,0.061,0.12877777777777777,0.23891666666666664,0.5,20,10,30,3,2
1,13,25,1,3,11.040999999999991,16,51,32,36,25,29,12.32199999999999,3.659999999999997,0.488,0.366,20,10,4,1,57,11,4,2,5,1,60,5,6,Hc,0.21617543859649122,0.3327272727272727,0.122,0.183,0.5,20,10,30,3,2
1,13,26,1,4,9.942999999999993,15,38,100,101,97,55,10.064999999999992,2.0739999999999985,1.4029999999999991,3.659999999999997,16,5,3,10,39,6,3,19,2,0.5,10,2.5,6,Hc,0.25807692307692304,0.34566666666666657,0.46766666666666645,0.1926315789473684,0.5,20,10,30,3,2
1,14,27,1,7,18.116999999999987,17,82,20,19,65,23,20.556999999999984,10.369999999999992,0.122,2.0129999999999986,20,17,1,10,94,46,1,10,6,0.5,22,5.5,6,Hc,0.2186914893617021,0.22543478260869562,0.122,0.20129999999999998,0.5,20,10,30,3,2
1,14,28,1,8,23.54599999999998,15,107,115,112,87,95,25.31499999999998,0.5489999999999999,4.452999999999997,4.147999999999997,20,2,12,15,115,3,23,23,2,0,10,2.5,6,Hc,0.22013043478260866,0.183,0.19360869565217392,0.18034782608695651,0.5,20,10,30,3,2
1,15,29,1,3,22.020999999999983,15,88,31,33,27,29,22.752999999999982,4.208999999999997,2.0129999999999986,3.842999999999997,19,11,6,12,92,16,7,21,5,1,60,5,6,Hc,0.24731521739130433,0.2630625,0.28757142857142853,0.183,0.5,20,10,30,3,2
1,15,30,1,6,16.10399999999999,10,68,9,4,6,63,17.445999999999987,4.818999999999996,0.122,5.123999999999996,16,12,1,14,75,19,1,20,6,0.5,22,5.5,6,Hc,0.2326133333333333,0.25363157894736843,0.122,0.2562,0.5,20,10,30,3,2
1,16,31,1,2,6.099999999999995,16,36,50,56,59,101,9.271999999999993,1.3419999999999992,1.463999999999999,6.160999999999995,20,6,5,16,48,7,6,34,4,0.5,14,3.5,6,Hc,0.19316666666666665,0.1917142857142857,0.24399999999999994,0.18120588235294116,0.5,20,10,30,3,2
1,16,32,1,8,15.066999999999988,17,59,112,41,118,111,16.22599999999999,3.476999999999997,2.9279999999999977,0.6709999999999998,20,13,7,2,68,17,9,2,2,0.5,11,2.75,6,Hc,0.23861764705882352,0.20452941176470588,0.32533333333333325,0.3354999999999999,0.5,20,10,30,3,2
1,17,33,1,3,7.9299999999999935,16,43,32,34,75,69,11.83399999999999,7.441999999999994,0.6709999999999998,2.9889999999999977,20,16,3,6,62,35,3,12,5,0,17,4.25,6,Hc,0.19087096774193546,0.21262857142857142,0.22366666666666665,0.2490833333333333,0.5,20,10,30,3,2
1,17,34,1,6,25.74199999999998,15,105,10,6,4,8,26.22999999999998,4.513999999999997,10.247999999999992,0.9149999999999996,18,10,18,5,108,15,48,6,6,1,72,6,6,Hc,0.24287037037037035,0.3009333333333333,0.2135,0.1525,0.5,20,10,30,3,2
1,18,35,1,7,5.184999999999996,14,32,15,20,87,86,12.93199999999999,3.0499999999999976,1.7689999999999988,0.9759999999999995,20,14,6,6,59,16,6,6,6,0,18,4.5,6,Hc,0.21918644067796608,0.190625,0.2948333333333332,0.16266666666666665,0.5,20,10,30,3,2
1,18,36,1,5,11.162999999999991,19,60,44,76,40,37,12.87099999999999,1.2809999999999993,1.0979999999999994,1.0979999999999994,20,3,3,4,66,4,3,4,5,0.5,18,4.5,6,Hc,0.1950151515151515,0.3202499999999999,0.3659999999999998,0.27449999999999997,0.5,20,10,30,3,2
1,1,1,0,5,17.689999999999987,15,83,41,9,6,63,21.349999999999984,8.783999999999994,0.488,12.99299999999999,20,17,2,17,101,35,2,54,5,0,21,5.25,6,Hc,0.21138613861386135,0.25097142857142857,0.244,0.24061111111111108,0.5,20,10,30,3,3
1,1,2,0,1,20.251999999999985,19,82,83,74,19,102,21.471999999999984,0.244,0.8539999999999996,2.0739999999999985,20,2,4,9,87,2,4,10,3,0,14,3.5,6,Hc,0.2468045977011494,0.122,0.21349999999999997,0.20739999999999997,0.5,20,10,30,3,3
1,2,3,0,10,15.432999999999987,19,76,13,90,18,24,38.91799999999997,0.366,0.122,0.6099999999999999,20,2,2,3,177,2,2,3,3,0.5,21,5.25,6,Hc,0.21987570621468924,0.183,0.061,0.20333333333333334,0.5,20,10,30,3,3
1,2,4,0,9,13.48099999999999,19,77,80,68,66,71,16.10399999999999,1.7689999999999988,0.7929999999999997,1.8299999999999987,20,8,3,6,95,8,3,7,4,0.5,15,3.75,6,Hc,0.1695157894736842,0.221125,0.2643333333333333,0.2614285714285714,0.5,20,10,30,3,3
1,3,5,0,10,9.820999999999993,17,44,90,95,29,88,13.84699999999999,1.8909999999999987,6.160999999999995,0.305,20,7,15,5,67,8,27,5,3,0.5,14,3.5,6,Hc,0.20667164179104477,0.236375,0.22818518518518516,0.061,0.5,20,10,30,3,3
1,3,6,0,9,11.89499999999999,15,45,1,107,84,63,30.98799999999998,0.305,0.366,0.061,20,2,1,1,116,2,1,1,4,0,15,3.75,6,Hc,0.26713793103448275,0.1525,0.366,0.061,0.5,20,10,30,3,3
1,4,7,0,2,18.482999999999986,16,85,50,15,75,51,27.144999999999982,0.061,0.305,0.8539999999999996,20,1,1,6,118,1,1,7,4,0,17,4.25,6,Hc,0.23004237288135593,0.061,0.305,0.122,0.5,20,10,30,3,3
1,4,8,0,3,10.003999999999992,16,47,25,36,35,108,17.384999999999987,1.3419999999999992,2.439999999999998,4.330999999999997,20,5,7,13,79,5,8,22,5,0.5,17,4.25,6,Hc,0.22006329113924047,0.26839999999999997,0.30499999999999994,0.19686363636363635,0.5,20,10,30,3,3
1,5,9,0,6,12.74899999999999,18,71,1,10,8,7,13.602999999999989,1.7079999999999989,2.3789999999999982,2.9889999999999977,20,3,8,9,75,3,8,11,6,1,72,6,6,Hc,0.1813733333333333,0.5693333333333331,0.297375,0.2717272727272727,0.5,20,10,30,3,3
