Subject,Round,Phase,afterbreak,Schema,Schema_RT,Schema_OB,Schema_AS,Cho_1,Cho_2,Cho_3,Cho_4,RT_1,RT_2,RT_3,RT_4,OB_1,OB_2,OB_3,OB_4,AS_1,AS_2,AS_3,AS_4,schema_payoff,AC,performance,payoff,breakR,type,dwellmean_1,dwellmean_2,dwellmean_3,dwellmean_4,param_w,param_Phi,param_thres_item_final,param_thres_schema,param_theta_shift,rep
1,1,1,0,9,8.478999999999994,20,73,65,70,69,62,10.369999999999992,5.916999999999995,1.8299999999999987,3.903999999999997,20,18,13,16,94,45,20,41,4,1,48,4,6,Lc,0.1103191489361702,0.13148888888888888,0.0915,0.09521951219512195,0.5,20,15,30,1,1
1,1,2,0,1,6.465999999999995,17,53,73,75,99,84,20.373999999999985,0.122,2.622999999999998,4.513999999999997,20,2,16,15,171,2,23,28,3,0.5,20,2.75,6,Lc,0.11914619883040935,0.061,0.11404347826086955,0.1612142857142857,0.5,20,15,30,1,1
1,2,3,0,9,10.552999999999992,19,76,30,16,32,62,31.780999999999977,1.7689999999999988,0.427,1.646999999999999,20,10,3,9,254,14,6,12,4,0,20,5,6,Lc,0.12512204724409448,0.12635714285714286,0.07116666666666667,0.13724999999999998,0.5,20,15,30,1,1
1,2,4,0,5,6.526999999999995,17,51,44,48,47,59,8.051999999999994,5.611999999999996,5.7949999999999955,1.2199999999999993,20,18,17,6,64,40,51,8,5,0.5,34,4.75,6,Lc,0.1258125,0.14029999999999998,0.11362745098039216,0.1525,0.5,20,15,30,1,1
1,3,5,0,6,6.709999999999995,17,61,3,8,10,12,27.510999999999978,0.6099999999999999,0.122,0.061,20,6,2,1,233,6,2,1,6,1,72,6,6,Lc,0.11807296137339054,0.10166666666666667,0.061,0.061,0.5,20,15,30,1,1
1,3,6,0,2,9.088999999999993,18,79,54,36,57,53,11.83399999999999,7.197999999999994,3.720999999999997,2.561999999999998,20,19,17,11,95,53,32,19,4,0.5,29,4.25,6,Lc,0.12456842105263158,0.13581132075471697,0.11628125,0.1348421052631579,0.5,20,15,30,1,1
1,4,7,0,5,8.905999999999993,18,83,48,38,106,98,11.040999999999991,0.427,8.722999999999994,5.489999999999996,20,4,18,16,102,4,72,43,5,0,14,3.5,6,Lc,0.10824509803921567,0.10675,0.12115277777777778,0.12767441860465117,0.5,20,15,30,1,1
1,4,8,0,8,7.014999999999994,19,69,115,119,112,116,9.027999999999993,1.2809999999999993,4.635999999999997,1.8909999999999987,20,7,17,11,83,12,44,14,2,1,24,2,6,Lc,0.10877108433734939,0.10675,0.10536363636363635,0.13507142857142856,0.5,20,15,30,1,1
1,5,9,0,7,6.404999999999995,14,46,16,22,18,56,11.89499999999999,0.6709999999999998,3.537999999999997,6.343999999999995,20,5,15,16,87,6,33,47,6,0.5,40,5.5,6,Lc,0.13672413793103447,0.11183333333333334,0.10721212121212122,0.13497872340425532,0.5,20,15,30,1,1
1,5,10,0,6,7.563999999999994,16,61,10,3,9,4,11.223999999999991,2.0739999999999985,0.7319999999999998,4.6969999999999965,20,10,3,15,96,18,3,40,6,1,72,6,6,Lc,0.11691666666666667,0.11522222222222221,0.244,0.11742499999999999,0.5,20,15,30,1,1
1,6,11,1,5,7.014999999999994,15,58,47,45,46,5,7.136999999999994,3.4159999999999973,6.709999999999995,15.127999999999988,17,17,17,17,60,31,62,125,5,0.5,36,5.25,6,Lc,0.11895,0.11019354838709677,0.1082258064516129,0.12102399999999999,0.5,20,15,30,1,1
1,6,12,1,10,8.539999999999994,19,64,19,29,87,52,38.55199999999997,0.122,0.061,0.122,20,1,1,2,310,1,1,2,3,0,18,4.5,6,Lc,0.12436129032258064,0.122,0.061,0.061,0.5,20,15,30,1,1
1,7,13,1,3,6.099999999999995,19,55,2,90,94,26,61.12199999999995,0.061,0.061,0.244,20,1,1,3,521,1,1,3,5,0,17,4.25,6,Lc,0.11731669865642994,0.061,0.061,0.08133333333333333,0.5,20,15,30,1,1
1,7,14,1,5,10.552999999999992,18,89,39,72,42,40,16.530999999999988,2.683999999999998,0.9759999999999995,0.9759999999999995,20,15,6,8,144,24,6,11,5,0.5,34,4.75,6,Lc,0.1147986111111111,0.11183333333333334,0.16266666666666665,0.08872727272727272,0.5,20,15,30,1,1
1,8,15,1,2,8.234999999999994,20,74,60,55,52,50,13.419999999999991,8.234999999999994,2.0739999999999985,1.646999999999999,20,19,13,10,112,65,22,14,4,1,48,4,6,Lc,0.11982142857142858,0.1266923076923077,0.09427272727272726,0.11764285714285715,0.5,20,15,30,1,1
1,8,16,1,3,6.282999999999995,16,47,88,94,98,92,58.13299999999995,0.061,1.4029999999999991,0.061,20,1,8,1,467,1,8,1,5,0.5,20,2.75,6,Lc,0.12448179871520343,0.061,0.175375,0.061,0.5,20,15,30,1,1
1,9,17,1,10,5.7339999999999955,16,46,15,87,92,90,12.62699999999999,0.183,1.2199999999999993,1.1589999999999994,20,3,9,7,98,3,9,10,3,0.5,24,3.75,6,Lc,0.1288469387755102,0.061,0.13555555555555554,0.1159,0.5,20,15,30,1,1
1,9,18,1,9,7.807999999999994,17,72,71,62,67,42,8.356999999999994,4.086999999999997,6.587999999999995,1.7079999999999989,20,17,17,7,77,38,61,13,4,0.5,29,4.25,6,Lc,0.10853246753246754,0.10755263157894737,0.108,0.13138461538461538,0.5,20,15,30,1,1
1,10,19,1,10,11.77299999999999,20,105,91,96,7,86,17.079999999999988,2.0129999999999986,43.858999999999966,0.122,20,10,18,2,144,13,374,2,3,0.5,24,3.75,6,Lc,0.11861111111111111,0.15484615384615386,0.11727005347593583,0.061,0.5,20,15,30,1,1
1,10,20,1,1,5.306999999999996,18,47,73,79,81,74,8.356999999999994,0.6709999999999998,8.295999999999994,2.0739999999999985,20,3,17,12,75,3,67,17,3,1,36,3,6,Lc,0.11142666666666666,0.22366666666666665,0.12382089552238805,0.122,0.5,20,15,30,1,1
1,11,21,1,2,8.661999999999994,15,69,57,55,50,10,11.528999999999991,0.244,10.308999999999992,15.249999999999988,20,3,18,16,96,3,85,111,4,0.5,30,4.5,6,Lc,0.12009375,0.08133333333333333,0.12128235294117647,0.13738738738738737,0.5,20,15,30,1,1
1,11,22,1,1,9.271999999999993,19,85,79,84,13,74,12.01699999999999,6.953999999999994,6.221999999999995,0.488,20,17,17,5,106,54,53,6,3,0.5,24,3.75,6,Lc,0.11336792452830188,0.12877777777777777,0.11739622641509434,0.08133333333333333,0.5,20,15,30,1,1
1,12,23,1,1,4.269999999999997,16,34,80,82,75,70,7.014999999999995,0.061,7.014999999999994,0.427,20,1,16,2,51,1,57,2,3,0.5,22,3.25,6,Lc,0.13754901960784313,0.061,0.12307017543859648,0.2135,0.5,20,15,30,1,1
1,12,24,1,3,5.550999999999996,17,50,4,58,57,33,50.14199999999996,0.366,0.183,0.244,20,5,2,2,403,5,2,2,5,0,19,4.75,6,Lc,0.12442183622828784,0.0732,0.0915,0.122,0.5,20,15,30,1,1
1,13,25,1,1,8.356999999999994,18,67,78,74,62,82,18.116999999999987,1.9519999999999986,0.6709999999999998,2.0739999999999985,20,11,5,11,151,13,7,19,3,0.5,22,3.25,6,Lc,0.11998013245033112,0.15015384615384614,0.09585714285714285,0.1091578947368421,0.5,20,15,30,1,1
1,13,26,1,5,7.9299999999999935,18,74,42,40,41,38,11.162999999999991,2.622999999999998,1.9519999999999986,8.173999999999994,20,14,9,17,104,20,14,67,5,1,60,5,6,Lc,0.10733653846153846,0.13115,0.13942857142857143,0.122,0.5,20,15,30,1,1
1,14,27,1,1,15.188999999999988,19,125,76,75,83,68,17.384999999999987,8.356999999999994,8.539999999999994,0.427,20,19,18,4,144,65,77,4,3,0.5,22,3.25,6,Lc,0.12072916666666667,0.12856923076923077,0.1109090909090909,0.10675,0.5,20,15,30,1,1
1,14,28,1,10,5.367999999999996,14,43,91,87,92,89,6.038999999999996,8.417999999999994,1.7689999999999988,7.319999999999994,20,19,9,17,49,65,13,61,3,1,36,3,6,Lc,0.12324489795918367,0.1295076923076923,0.13607692307692307,0.12,0.5,20,15,30,1,1
1,15,29,1,1,7.746999999999994,18,65,73,83,80,116,9.271999999999993,4.086999999999997,2.0129999999999986,10.491999999999992,20,15,13,17,77,36,18,86,3,0.5,20,2.75,6,Lc,0.1204155844155844,0.11352777777777777,0.11183333333333333,0.122,0.5,20,15,30,1,1
1,15,30,1,7,4.7579999999999965,16,42,16,20,17,18,13.114999999999991,0.7319999999999998,0.427,6.404999999999995,20,6,3,17,109,6,4,58,6,1,72,6,6,Lc,0.1203211009174312,0.122,0.10675,0.11043103448275862,0.5,20,15,30,1,1
1,16,31,1,2,10.308999999999992,19,92,58,50,60,57,17.994999999999987,0.427,0.8539999999999996,3.476999999999997,20,2,7,13,147,2,9,31,4,1,48,4,6,Lc,0.12241496598639455,0.2135,0.09488888888888888,0.11216129032258064,0.5,20,15,30,1,1
1,16,32,1,7,3.842999999999997,12,28,14,17,16,45,7.441999999999994,2.8669999999999978,15.554999999999987,0.5489999999999999,20,12,18,6,55,22,135,7,6,0.5,41,5.75,6,Lc,0.1353090909090909,0.1303181818181818,0.11522222222222223,0.07842857142857143,0.5,20,15,30,1,1
1,17,33,1,6,13.11499999999999,19,108,11,12,6,5,13.968999999999989,8.966999999999993,0.5489999999999999,1.2199999999999993,20,19,4,6,116,74,4,9,6,1,72,6,6,Lc,0.12042241379310345,0.12117567567567566,0.13724999999999998,0.13555555555555554,0.5,20,15,30,1,1
1,17,34,1,7,3.720999999999997,13,34,15,22,13,14,5.062999999999996,0.9149999999999996,1.0979999999999994,12.99299999999999,20,7,5,17,44,8,6,105,6,1,72,6,6,Lc,0.11506818181818182,0.114375,0.183,0.12374285714285714,0.5,20,15,30,1,1
1,1,1,0,5,8.905999999999993,20,76,38,39,42,88,10.735999999999992,6.8929999999999945,0.6099999999999999,2.8669999999999978,20,18,6,16,92,63,7,23,5,0.5,33,4.5,6,Lc,0.11669565217391305,0.1094126984126984,0.08714285714285715,0.12465217391304347,0.5,20,15,30,1,2
1,1,2,0,9,9.027999999999993,19,67,66,67,61,70,11.89499999999999,0.8539999999999996,2.500999999999998,6.709999999999995,20,7,16,17,87,7,26,58,4,1,48,4,6,Lc,0.13672413793103447,0.122,0.09619230769230769,0.1156896551724138,0.5,20,15,30,1,2
1,2,3,0,6,8.844999999999994,20,72,11,8,10,12,10.430999999999992,10.613999999999992,1.8299999999999987,4.940999999999996,20,18,10,17,86,90,13,39,6,1,72,6,6,Lc,0.12129069767441861,0.11793333333333333,0.14076923076923076,0.1266923076923077,0.5,20,15,30,1,2
1,2,4,0,5,6.526999999999995,19,59,43,44,42,101,11.89499999999999,0.7319999999999998,0.488,5.916999999999995,20,4,5,16,116,5,5,48,5,0.5,32,4.25,6,Lc,0.10254310344827586,0.1464,0.09759999999999999,0.12327083333333333,0.5,20,15,30,1,2
1,3,5,0,3,7.8689999999999936,20,76,29,25,11,10,12.99299999999999,7.197999999999994,24.21699999999998,7.746999999999994,20,19,18,17,112,62,186,64,5,0,22,5.5,6,Lc,0.11600892857142857,0.11609677419354839,0.1301989247311828,0.12104687499999998,0.5,20,15,30,1,2
1,3,6,0,9,8.417999999999994,17,66,65,70,62,20,8.783999999999994,11.162999999999991,1.646999999999999,0.305,20,19,9,3,70,108,12,3,4,0.5,30,4.5,6,Lc,0.12548571428571428,0.10336111111111111,0.13724999999999998,0.10166666666666667,0.5,20,15,30,1,2
1,4,7,0,5,6.465999999999995,19,61,41,40,43,48,9.820999999999993,1.1589999999999994,3.1719999999999975,7.441999999999994,20,7,13,17,94,10,25,46,5,1,60,5,6,Lc,0.10447872340425532,0.11589999999999999,0.12688,0.16178260869565217,0.5,20,15,30,1,2
1,4,8,0,9,10.430999999999992,20,91,69,64,70,71,12.74899999999999,4.391999999999997,1.2199999999999993,6.282999999999995,20,17,8,17,108,41,9,54,4,1,48,4,6,Lc,0.11804629629629629,0.1071219512195122,0.13555555555555554,0.11635185185185186,0.5,20,15,30,1,2
1,5,9,0,8,4.6969999999999965,15,43,112,113,120,117,10.918999999999992,2.0129999999999986,20.617999999999984,0.488,20,11,18,4,94,19,170,4,2,1,24,2,6,Lc,0.11615957446808511,0.10594736842105262,0.12128235294117647,0.122,0.5,20,15,30,1,2
1,5,10,0,7,7.807999999999994,14,57,21,14,17,18,8.905999999999993,6.404999999999995,0.244,13.785999999999989,20,17,2,17,68,52,2,125,6,1,72,6,6,Lc,0.13097058823529412,0.12317307692307693,0.122,0.110288,0.5,20,15,30,1,2
1,6,11,1,5,6.160999999999995,19,53,42,48,41,38,8.600999999999994,2.744999999999998,5.672999999999996,1.7689999999999988,20,12,18,10,74,21,48,18,5,1,60,5,6,Lc,0.11622972972972972,0.1307142857142857,0.1181875,0.09827777777777777,0.5,20,15,30,1,2
1,6,12,1,9,6.770999999999995,15,58,69,68,63,72,9.210999999999993,1.2809999999999993,5.184999999999996,15.615999999999987,20,8,17,17,84,12,43,120,4,1,48,4,6,Lc,0.10965476190476191,0.10675,0.12058139534883722,0.13013333333333332,0.5,20,15,30,1,2
1,7,13,1,5,8.112999999999994,17,76,40,48,39,21,13.72499999999999,1.3419999999999992,3.476999999999997,15.859999999999987,20,11,14,17,129,14,22,132,5,0.5,36,5.25,6,Lc,0.1063953488372093,0.09585714285714285,0.15804545454545454,0.12015151515151513,0.5,20,15,30,1,2
1,7,14,1,6,5.550999999999996,17,53,3,10,5,11,6.7099999999999955,3.598999999999997,3.0499999999999976,1.7079999999999989,20,16,12,10,66,25,23,14,6,1,72,6,6,Lc,0.10166666666666667,0.14396,0.1326086956521739,0.122,0.5,20,15,30,1,2
1,8,15,1,5,5.123999999999996,13,47,47,37,38,43,5.794999999999996,2.2569999999999983,5.489999999999996,3.1719999999999975,17,13,18,11,52,20,50,24,5,1,60,5,6,Lc,0.11144230769230769,0.11285,0.1098,0.13216666666666665,0.5,20,15,30,1,2
1,8,16,1,6,7.807999999999994,17,65,7,11,1,5,10.918999999999992,1.0979999999999994,3.0499999999999976,1.8909999999999987,20,8,15,10,95,11,29,15,6,1,72,6,6,Lc,0.11493684210526316,0.09981818181818182,0.10517241379310345,0.12606666666666666,0.5,20,15,30,1,2
1,9,17,1,10,8.722999999999994,16,73,92,90,94,91,9.820999999999993,4.818999999999996,1.9519999999999986,5.367999999999996,20,15,10,16,82,37,18,38,3,1,36,3,6,Lc,0.11976829268292682,0.13024324324324324,0.10844444444444444,0.14126315789473684,0.5,20,15,30,1,2
1,9,18,1,4,5.855999999999995,18,54,107,108,99,101,18.238999999999987,1.463999999999999,1.0979999999999994,1.9519999999999986,20,9,9,13,151,11,10,20,2,1,24,2,6,Lc,0.12078807947019866,0.1330909090909091,0.1098,0.09759999999999999,0.5,20,15,30,1,2
1,10,19,1,6,3.598999999999997,12,32,2,5,6,9,10.369999999999992,0.061,1.0369999999999995,10.125999999999992,20,1,9,17,101,1,9,82,6,1,72,6,6,Lc,0.10267326732673268,0.061,0.11522222222222223,0.12348780487804878,0.5,20,15,30,1,2
1,10,20,1,1,10.735999999999992,18,96,73,31,84,30,14.94499999999999,6.8319999999999945,0.366,0.488,20,18,4,2,129,55,4,2,3,0,16,4,6,Lc,0.11585271317829457,0.12421818181818181,0.0915,0.244,0.5,20,15,30,1,2
1,11,21,1,9,7.014999999999994,18,64,72,65,62,19,9.637999999999993,9.637999999999993,3.598999999999997,2.9279999999999977,20,18,12,13,89,81,30,18,4,0.5,30,4.5,6,Lc,0.10829213483146068,0.11898765432098767,0.11996666666666667,0.16266666666666665,0.5,20,15,30,1,2
1,11,22,1,6,5.489999999999996,16,48,9,6,3,84,7.075999999999995,7.502999999999994,4.269999999999997,2.744999999999998,20,18,16,12,61,70,35,25,6,0.5,39,5.25,6,Lc,0.11599999999999999,0.10718571428571429,0.122,0.1098,0.5,20,15,30,1,2
1,12,23,1,2,15.066999999999988,17,130,57,59,53,50,19.702999999999985,5.062999999999996,0.122,1.8299999999999987,20,16,2,12,166,36,2,20,4,1,48,4,6,Lc,0.11869277108433735,0.1406388888888889,0.061,0.0915,0.5,20,15,30,1,2
1,12,24,1,5,5.428999999999996,18,49,48,40,43,47,6.282999999999996,7.9299999999999935,1.646999999999999,1.3419999999999992,20,19,11,12,58,66,17,14,5,1,60,5,6,Lc,0.10832758620689655,0.12015151515151515,0.096882352941176475,0.09585714285714285,0.5,20,15,30,1,2
1,13,25,1,3,2.805999999999998,11,22,31,30,29,32,4.6969999999999965,0.7319999999999998,2.3789999999999982,10.125999999999992,20,8,13,17,38,9,17,88,5,1,60,5,6,Lc,0.12360526315789473,0.08133333333333333,0.13994117647058824,0.11506818181818182,0.5,20,15,30,1,2
1,13,26,1,10,8.356999999999994,17,72,86,93,95,91,9.637999999999993,0.244,1.2809999999999993,8.173999999999994,20,2,9,16,80,2,12,74,3,1,36,3,6,Lc,0.12047499999999998,0.122,0.10675,0.11045945945945945,0.5,20,15,30,1,2
1,14,27,1,7,8.783999999999994,19,72,22,17,20,18,12.01699999999999,11.284999999999991,0.061,1.9519999999999986,20,19,1,11,101,92,1,16,6,1,72,6,6,Lc,0.11898019801980197,0.12266304347826086,0.061,0.12199999999999998,0.5,20,15,30,1,2
1,14,28,1,3,7.014999999999994,19,63,33,32,27,35,9.149999999999993,0.122,8.417999999999994,19.824999999999985,20,2,18,17,76,2,73,166,5,1,60,5,6,Lc,0.12039473684210526,0.061,0.11531506849315068,0.1194277108433735,0.5,20,15,30,1,2
1,15,29,1,2,8.661999999999994,18,81,57,59,52,60,9.698999999999993,3.659999999999997,15.249999999999988,1.4029999999999991,20,16,18,13,86,40,133,14,4,1,48,4,6,Lc,0.11277906976744187,0.0915,0.11466165413533835,0.10021428571428571,0.5,20,15,30,1,2
1,15,30,1,7,5.855999999999995,18,56,14,21,18,16,6.892999999999995,1.7689999999999988,10.491999999999992,10.918999999999992,20,10,18,17,64,16,95,91,6,1,72,6,6,Lc,0.10770312499999998,0.1105625,0.1104421052631579,0.11998901098901098,0.5,20,15,30,1,2
1,16,31,1,9,6.343999999999995,20,60,68,72,61,71,7.502999999999995,3.659999999999997,8.966999999999993,0.6709999999999998,20,16,18,5,69,36,77,5,4,1,48,4,6,Lc,0.1087391304347826,0.10166666666666667,0.11645454545454545,0.13419999999999999,0.5,20,15,30,1,2
1,16,32,1,3,3.3549999999999973,11,30,29,28,31,34,5.123999999999996,0.6099999999999999,2.0129999999999986,2.9279999999999977,20,5,9,15,52,6,14,31,5,1,60,5,6,Lc,0.09853846153846155,0.10166666666666667,0.1437857142857143,0.0944516129032258,0.5,20,15,30,1,2
1,17,33,1,7,3.659999999999997,15,33,21,24,19,20,6.770999999999995,1.8299999999999987,3.720999999999997,0.122,20,8,15,2,53,13,33,2,6,1,72,6,6,Lc,0.12775471698113208,0.14076923076923076,0.11275757575757575,0.061,0.5,20,15,30,1,2
1,17,34,1,5,5.977999999999995,16,53,37,43,44,67,11.406999999999991,0.6709999999999998,0.122,21.227999999999984,20,3,2,17,93,3,2,169,5,0.5,34,4.75,6,Lc,0.12265591397849461,0.22366666666666665,0.061,0.1256094674556213,0.5,20,15,30,1,2
1,18,35,1,10,7.380999999999994,17,71,86,87,91,90,8.295999999999994,2.622999999999998,10.491999999999992,1.4029999999999991,20,12,18,7,81,21,90,9,3,1,36,3,6,Lc,0.10241975308641975,0.12490476190476191,0.11657777777777777,0.15588888888888888,0.5,20,15,30,1,2
1,18,36,1,6,8.905999999999993,18,72,7,6,5,11,13.541999999999991,2.805999999999998,3.659999999999997,0.5489999999999999,20,14,15,5,111,27,28,6,6,1,72,6,6,Lc,0.122,0.10392592592592592,0.1307142857142857,0.0915,0.5,20,15,30,1,2
1,1,1,0,5,6.404999999999995,18,57,37,41,89,39,14.57899999999999,0.6709999999999998,2.1349999999999985,0.7319999999999998,20,6,14,6,126,7,22,7,5,0.5,33,4.5,6,Lc,0.1157063492063492,0.09585714285714285,0.09704545454545455,0.10457142857142857,0.5,20,15,30,1,3
1,1,2,0,7,15.188999999999988,20,134,103,59,100,101,22.386999999999983,8.417999999999994,0.6099999999999999,2.0129999999999986,20,18,5,11,198,69,5,15,6,0.5,16,2.5,6,Lc,0.11306565656565655,0.122,0.122,0.13419999999999999,0.5,20,15,30,1,3
1,2,3,0,1,9.637999999999993,19,85,74,81,82,27,11.406999999999991,1.1589999999999994,8.112999999999994,5.306999999999996,20,7,18,16,98,9,64,37,3,0.5,23,3.5,6,Lc,0.11639795918367346,0.12877777777777777,0.126765625,0.14343243243243242,0.5,20,15,30,1,3
1,2,4,0,6,11.77299999999999,20,106,104,1,6,108,20.983999999999984,3.781999999999997,1.0369999999999995,2.744999999999998,20,16,7,15,175,34,10,23,6,0,16,4,6,Lc,0.11990857142857143,0.11123529411764706,0.1037,0.11934782608695653,0.5,20,15,30,1,3
1,3,5,0,7,10.674999999999992,19,102,14,20,17,56,21.349999999999984,0.6099999999999999,0.305,7.807999999999994,20,5,2,16,178,5,2,66,6,0.5,40,5.5,6,Lc,0.1199438202247191,0.122,0.1525,0.1183030303030303,0.5,20,15,30,1,3
1,3,6,0,3,9.820999999999993,19,81,26,29,105,107,15.12799999999999,10.430999999999992,0.244,0.366,20,19,2,4,125,90,2,4,5,0,14,3.5,6,Lc,0.12102399999999999,0.11589999999999999,0.122,0.0915,0.5,20,15,30,1,3
1,4,7,0,2,9.515999999999993,19,69,56,58,99,54,20.373999999999985,0.8539999999999996,2.3179999999999983,0.366,20,8,13,3,171,9,22,3,4,0.5,26,3.5,6,Lc,0.11914619883040935,0.09488888888888888,0.10536363636363637,0.122,0.5,20,15,30,1,3
1,4,8,0,3,8.539999999999994,17,76,33,36,9,12,15.12799999999999,3.2329999999999974,3.2939999999999974,3.4159999999999973,20,16,16,14,131,26,26,26,5,0,22,5.5,6,Lc,0.11548091603053434,0.12434615384615384,0.1266923076923077,0.13138461538461538,0.5,20,15,30,1,3
1,5,9,0,9,7.9299999999999935,19,73,62,65,45,72,9.271999999999993,6.587999999999995,5.489999999999996,0.5489999999999999,20,19,16,5,83,56,47,5,4,0.5,29,4.25,6,Lc,0.11171084337349396,0.11764285714285715,0.11680851063829786,0.1098,0.5,20,15,30,1,3
1,5,10,0,3,11.162999999999991,19,88,35,32,30,50,15.676999999999989,3.842999999999997,15.432999999999987,0.7929999999999997,20,15,18,9,124,32,124,9,5,0.5,34,4.75,6,Lc,0.1264274193548387,0.12009375,0.12445967741935483,0.08811111111111111,0.5,20,15,30,1,3
1,6,11,1,8,10.735999999999992,19,87,109,115,59,118,13.663999999999989,6.526999999999995,4.452999999999997,2.9889999999999977,20,19,17,13,116,53,37,27,2,0.5,16,2.5,6,Lc,0.11779310344827586,0.1231509433962264,0.12035135135135135,0.11070370370370371,0.5,20,15,30,1,3
1,6,12,1,9,8.478999999999994,18,75,72,63,108,70,8.600999999999994,9.332999999999993,4.147999999999997,1.1589999999999994,19,19,16,11,76,80,34,12,4,0.5,26,3.5,6,Lc,0.11317105263157895,0.1166625,0.122,0.09658333333333333,0.5,20,15,30,1,3
1,7,13,1,1,7.746999999999994,20,65,82,73,83,84,9.393999999999993,1.524999999999999,6.221999999999995,6.465999999999995,20,11,15,17,80,14,47,55,3,1,36,3,6,Lc,0.11742499999999999,0.10892857142857143,0.13238297872340427,0.11756363636363636,0.5,20,15,30,1,3
1,7,14,1,9,7.807999999999994,20,77,72,64,67,119,8.173999999999994,5.245999999999996,7.258999999999994,15.981999999999987,20,19,18,17,81,48,57,123,4,0.5,26,3.5,6,Lc,0.10091358024691359,0.10929166666666666,0.12735087719298246,0.12993495934959348,0.5,20,15,30,1,3
1,8,15,1,10,7.502999999999994,17,63,96,91,88,99,12.13899999999999,1.8299999999999987,0.061,11.284999999999991,20,9,1,17,96,15,1,102,3,0.5,20,2.75,6,Lc,0.12644791666666666,0.122,0.061,0.11063725490196079,0.5,20,15,30,1,3
1,8,16,1,6,9.271999999999993,17,74,8,4,6,33,10.796999999999992,10.186999999999992,0.9149999999999996,1.8909999999999987,20,18,5,9,88,82,5,21,6,0.5,41,5.75,6,Lc,0.12269318181818181,0.12423170731707317,0.183,0.09004761904761904,0.5,20,15,30,1,3
1,9,17,1,7,8.295999999999994,18,65,15,24,21,14,14.70099999999999,0.8539999999999996,3.476999999999997,4.940999999999996,20,4,16,16,115,6,32,44,6,1,72,6,6,Lc,0.12783478260869566,0.14233333333333334,0.10865625,0.11229545454545455,0.5,20,15,30,1,3
1,9,18,1,2,11.284999999999991,16,96,59,50,51,7,18.116999999999987,3.903999999999997,0.305,19.031999999999986,20,14,4,17,154,24,4,155,4,0.5,30,4.5,6,Lc,0.11764285714285715,0.16266666666666665,0.07625,0.12278709677419354,0.5,20,15,30,1,3
1,10,19,1,7,9.332999999999993,18,75,23,66,19,15,12.32199999999999,7.990999999999993,0.305,0.122,20,18,3,1,96,56,3,1,6,0.5,40,5.5,6,Lc,0.12835416666666666,0.14269642857142856,0.10166666666666667,0.122,0.5,20,15,30,1,3
1,10,20,1,2,4.147999999999997,15,31,57,58,2,11,5.977999999999996,2.0739999999999985,15.676999999999987,0.7319999999999998,20,14,18,7,47,20,132,8,4,0,20,5,6,Lc,0.12719148936170213,0.1037,0.1187651515151515,0.0915,0.5,20,15,30,1,3
1,11,21,1,5,7.502999999999994,18,71,41,42,12,11,7.746999999999994,5.611999999999996,10.308999999999992,21.776999999999983,20,17,18,17,73,49,94,193,5,0,22,5.5,6,Lc,0.10612328767123287,0.11453061224489795,0.10967021276595744,0.1128341968911917,0.5,20,15,30,1,3
1,11,22,1,10,5.7339999999999955,17,50,13,96,89,34,47.57999999999996,0.061,0.061,0.305,20,1,1,2,385,1,1,2,3,0,17,4.25,6,Lc,0.12358441558441557,0.061,0.061,0.1525,0.5,20,15,30,1,3
1,12,23,1,7,6.953999999999994,19,65,22,17,19,18,10.857999999999992,10.369999999999992,0.7929999999999997,3.4159999999999973,20,18,8,15,91,89,9,30,6,1,72,6,6,Lc,0.11931868131868133,0.11651685393258426,0.08811111111111111,0.11386666666666666,0.5,20,15,30,1,3
1,12,24,1,5,8.112999999999994,15,63,45,37,57,44,13.053999999999991,3.2939999999999974,2.805999999999998,0.6099999999999999,20,17,15,6,106,35,27,6,5,0.5,34,4.75,6,Lc,0.1231509433962264,0.09411428571428572,0.10392592592592592,0.10166666666666667,0.5,20,15,30,1,3
1,13,25,1,7,6.8319999999999945,17,57,53,24,15,16,8.844999999999994,2.622999999999998,1.2809999999999993,4.940999999999996,20,11,11,14,73,19,15,34,6,0.5,40,5.5,6,Lc,0.12116438356164383,0.13805263157894737,0.0854,0.14532352941176468,0.5,20,15,30,1,3
1,13,26,1,9,9.271999999999993,18,69,71,61,75,72,10.247999999999992,6.526999999999995,2.0129999999999986,1.2809999999999993,20,17,12,9,76,53,18,15,4,0.5,27,3.75,6,Lc,0.1348421052631579,0.12315094339622641,0.11183333333333333,0.0854,0.5,20,15,30,1,3
1,14,27,1,6,7.746999999999994,17,69,2,53,96,5,12.68799999999999,0.9759999999999995,5.550999999999996,2.622999999999998,20,5,16,11,109,7,45,17,6,0,19,4.75,6,Lc,0.11640366972477063,0.13942857142857143,0.12335555555555555,0.15429411764705883,0.5,20,15,30,1,3
1,14,28,1,7,4.391999999999997,16,40,16,19,17,26,6.7099999999999955,0.427,10.430999999999992,0.9149999999999996,20,2,18,5,59,3,89,5,6,0.5,41,5.75,6,Lc,0.11372881355932203,0.14233333333333334,0.11720224719101123,0.183,0.5,20,15,30,1,3
1,15,29,1,5,8.783999999999994,19,77,42,46,73,47,10.796999999999992,1.2199999999999993,7.624999999999994,0.061,20,9,18,1,93,12,67,1,5,0.5,33,4.5,6,Lc,0.11609677419354839,0.10166666666666667,0.11380597014925374,0.061,0.5,20,15,30,1,3
1,15,30,1,7,6.221999999999995,17,54,13,60,21,57,9.271999999999993,0.366,0.427,1.2809999999999993,20,4,4,5,83,4,4,10,6,0,20,5,6,Lc,0.11171084337349396,0.0915,0.10675,0.1281,0.5,20,15,30,1,3
1,16,31,1,4,12.99299999999999,19,101,97,59,99,12,14.456999999999988,5.672999999999996,3.2329999999999974,1.7079999999999989,20,18,15,8,117,48,25,10,2,0,14,3.5,6,Lc,0.12356410256410255,0.1181875,0.12932,0.1708,0.5,20,15,30,1,3
1,16,32,1,7,4.086999999999997,16,39,19,14,17,69,4.5749999999999975,2.1959999999999984,15.737999999999987,2.439999999999998,19,12,18,13,42,17,125,20,6,0.5,40,5.5,6,Lc,0.10892857142857143,0.12917647058823528,0.125904,0.122,0.5,20,15,30,1,3
1,17,33,1,4,10.125999999999992,20,100,99,101,103,17,12.74899999999999,6.465999999999995,0.488,6.465999999999995,20,18,4,17,122,58,5,58,2,0.5,18,3,6,Lc,0.1045,0.11148275862068965,0.09759999999999999,0.11148275862068965,0.5,20,15,30,1,3
1,17,34,1,8,12.38299999999999,19,109,118,113,119,4,13.17599999999999,1.7689999999999988,13.602999999999989,11.77299999999999,20,13,18,17,117,14,110,85,2,0.5,18,3,6,Lc,0.11261538461538462,0.12635714285714286,0.12366363636363636,0.13850588235294117,0.5,20,15,30,1,3
1,1,1,0,6,15.188999999999988,20,127,12,5,29,84,18.421999999999986,9.515999999999993,0.5489999999999999,8.051999999999994,20,19,3,17,158,65,3,72,6,0,20,5,6,Lc,0.11659493670886076,0.1464,0.183,0.11183333333333333,0.5,20,15,30,1,4
1,1,2,0,8,7.197999999999994,18,64,120,110,112,90,11.284999999999991,3.1719999999999975,2.9279999999999977,0.8539999999999996,20,16,15,9,101,33,33,11,2,0.5,15,2.25,6,Lc,0.11173267326732672,0.09612121212121212,0.08872727272727272,0.07763636363636363,0.5,20,15,30,1,4
1,2,3,0,5,8.478999999999994,18,74,41,44,43,47,12.687999999999992,1.3419999999999992,3.2329999999999974,1.2809999999999993,20,9,13,8,101,12,23,11,5,1,60,5,6,Lc,0.12562376237623762,0.11183333333333334,0.14056521739130434,0.11645454545454545,0.5,20,15,30,1,4
1,2,4,0,3,7.807999999999994,16,57,17,35,88,91,46.298999999999964,1.0979999999999994,0.488,0.122,20,7,6,2,355,7,6,2,5,0,17,4.25,6,Lc,0.13041971830985916,0.15685714285714286,0.08133333333333333,0.061,0.5,20,15,30,1,4
1,3,5,0,2,11.467999999999991,20,98,55,59,53,7,16.896999999999988,2.3789999999999982,4.879999999999996,2.1349999999999985,20,11,18,13,148,19,47,20,4,0.5,30,4.5,6,Lc,0.11416891891891892,0.12521052631578947,0.10382978723404254,0.10675,0.5,20,15,30,1,4
1,3,6,0,9,7.258999999999994,18,61,71,69,65,67,9.515999999999993,2.2569999999999983,0.8539999999999996,7.990999999999993,20,14,7,16,80,22,8,69,4,1,48,4,6,Lc,0.11895,0.1025909090909091,0.10675,0.11581159420289855,0.5,20,15,30,1,4
1,4,7,0,5,7.197999999999994,17,69,39,46,43,41,10.613999999999992,0.244,6.404999999999995,4.6969999999999965,20,1,17,17,92,1,41,33,5,1,60,5,6,Lc,0.11536956521739129,0.244,0.15621951219512195,0.14233333333333334,0.5,20,15,30,1,4
1,4,8,0,3,7.746999999999994,19,65,26,25,34,33,9.393999999999993,10.369999999999992,2.500999999999998,0.488,20,19,13,5,79,80,21,5,5,1,60,5,6,Lc,0.1189113924050633,0.129625,0.11909523809523809,0.09759999999999999,0.5,20,15,30,1,4
1,5,9,0,2,7.197999999999994,18,61,60,14,49,57,8.356999999999994,3.4159999999999973,3.781999999999997,1.0979999999999994,20,13,16,8,71,23,34,10,4,0.5,30,4.5,6,Lc,0.11770422535211267,0.1485217391304348,0.11123529411764706,0.1098,0.5,20,15,30,1,4
1,5,10,0,6,7.319999999999994,17,71,11,5,4,6,17.079999999999988,0.6099999999999999,0.061,2.3789999999999982,20,5,1,11,145,6,1,14,6,1,72,6,6,Lc,0.11779310344827586,0.10166666666666667,0.061,0.16992857142857143,0.5,20,15,30,1,4
1,6,11,1,5,5.184999999999996,12,45,41,37,42,39,9.332999999999993,1.9519999999999986,2.1349999999999985,3.659999999999997,20,12,14,15,77,15,21,30,5,1,60,5,6,Lc,0.12120779220779221,0.13013333333333332,0.10166666666666667,0.122,0.5,20,15,30,1,4
1,6,12,1,10,7.319999999999994,17,61,31,96,51,55,56.058999999999955,0.061,0.183,0.305,20,1,2,3,450,1,2,3,3,0,16,4,6,Lc,0.12457555555555554,0.061,0.0915,0.10166666666666667,0.5,20,15,30,1,4
1,7,13,1,6,4.7579999999999965,16,42,12,2,3,5,5.001999999999996,4.574999999999997,6.8319999999999945,6.160999999999995,18,17,18,15,44,40,59,48,6,1,72,6,6,Lc,0.11368181818181819,0.11437499999999999,0.11579661016949153,0.12835416666666666,0.5,20,15,30,1,4
1,7,14,1,2,7.8689999999999936,19,69,51,19,97,20,14.883999999999988,3.2939999999999974,4.574999999999997,0.488,20,14,17,5,117,30,40,5,4,0,18,4.5,6,Lc,0.12721367521367521,0.1098,0.11437499999999999,0.09759999999999999,0.5,20,15,30,1,4
1,8,15,1,9,6.770999999999995,20,64,67,66,9,12,8.295999999999994,6.038999999999995,0.9759999999999995,5.306999999999996,20,17,6,17,78,50,8,44,4,0,20,5,6,Lc,0.10635897435897435,0.12078,0.122,0.12061363636363637,0.5,20,15,30,1,4
1,8,16,1,3,6.465999999999995,18,62,28,36,26,33,6.526999999999995,0.9149999999999996,6.404999999999995,0.122,19,6,16,1,63,7,49,1,5,1,60,5,6,Lc,0.1036031746031746,0.1307142857142857,0.13071428571428573,0.122,0.5,20,15,30,1,4
1,9,17,1,5,6.8319999999999945,16,58,45,40,48,38,10.552999999999992,1.646999999999999,1.0979999999999994,4.7579999999999965,20,11,7,16,90,15,7,39,5,1,60,5,6,Lc,0.11725555555555554,0.1098,0.15685714285714286,0.12199999999999998,0.5,20,15,30,1,4
1,9,18,1,2,6.953999999999994,17,62,56,49,59,51,12.44399999999999,4.391999999999997,1.463999999999999,3.0499999999999976,20,16,6,14,112,42,8,27,4,1,48,4,6,Lc,0.11110714285714285,0.10457142857142857,0.18299999999999997,0.11296296296296296,0.5,20,15,30,1,4
1,10,19,1,1,7.990999999999993,18,66,75,74,11,8,12.13899999999999,0.122,8.966999999999993,3.720999999999997,20,2,18,15,105,2,70,30,3,0,18,4.5,6,Lc,0.11560952380952381,0.061,0.1281,0.12403333333333333,0.5,20,15,30,1,4
1,10,20,1,2,4.7579999999999965,16,45,49,51,23,57,8.661999999999994,3.598999999999997,5.611999999999996,2.3179999999999983,20,17,18,12,80,32,50,22,4,0.5,30,4.5,6,Lc,0.108275,0.11246874999999999,0.11223999999999999,0.10536363636363637,0.5,20,15,30,1,4
1,11,21,1,9,7.319999999999994,19,65,4,61,62,5,25.86399999999998,0.488,0.061,1.585999999999999,20,5,1,9,211,5,1,12,4,0,20,5,6,Lc,0.1225781990521327,0.09759999999999999,0.061,0.13216666666666665,0.5,20,15,30,1,4
1,11,22,1,2,9.271999999999993,19,76,51,56,60,54,14.45699999999999,3.476999999999997,1.9519999999999986,4.391999999999997,20,15,8,17,117,29,14,40,4,1,48,4,6,Lc,0.12356410256410255,0.11989655172413793,0.13942857142857143,0.1098,0.5,20,15,30,1,4
1,12,23,1,1,9.698999999999993,18,92,75,5,78,64,9.820999999999993,10.735999999999992,2.500999999999998,2.439999999999998,20,19,12,10,94,88,19,13,3,0,16,4,6,Lc,0.10447872340425532,0.12200000000000001,0.1316315789473684,0.18769230769230769,0.5,20,15,30,1,4
1,12,24,1,8,6.221999999999995,18,52,120,113,116,115,12.38299999999999,0.488,5.672999999999996,0.122,20,3,16,1,105,3,42,1,2,1,24,2,6,Lc,0.11793333333333333,0.16266666666666665,0.13507142857142856,0.122,0.5,20,15,30,1,4
1,13,25,1,5,7.441999999999994,17,66,47,43,48,75,9.454999999999993,1.646999999999999,6.953999999999994,4.147999999999997,20,13,17,17,81,17,58,35,5,0.5,33,4.5,6,Lc,0.11672839506172838,0.09688235294117646,0.11989655172413792,0.11851428571428571,0.5,20,15,30,1,4
1,13,26,1,10,15.859999999999987,19,125,29,96,88,91,21.044999999999984,1.9519999999999986,3.4159999999999973,0.9759999999999995,20,13,16,9,168,19,28,11,3,0.5,23,3.5,6,Lc,0.12526785714285715,0.10273684210526315,0.12200000000000001,0.08872727272727272,0.5,20,15,30,1,4
1,14,27,1,5,7.441999999999994,17,68,40,39,41,42,12.38299999999999,0.427,5.916999999999995,7.014999999999994,20,5,18,17,105,5,46,60,5,1,60,5,6,Lc,0.11793333333333333,0.0854,0.1286304347826087,0.11691666666666667,0.5,20,15,30,1,4
1,14,28,1,4,10.552999999999992,20,84,105,1,4,78,15.18899999999999,15.310999999999988,12.44399999999999,0.183,20,17,15,2,127,134,101,2,2,0,17,4.25,6,Lc,0.11959842519685039,0.11426119402985074,0.12320792079207919,0.0915,0.5,20,15,30,1,4
1,15,29,1,6,5.428999999999996,15,48,4,9,10,11,5.916999999999996,0.9149999999999996,8.905999999999993,5.367999999999996,20,6,18,15,54,6,83,38,6,1,72,6,6,Lc,0.10957407407407407,0.1525,0.10730120481927712,0.14126315789473684,0.5,20,15,30,1,4
1,15,30,1,9,7.014999999999994,20,64,66,70,78,71,8.478999999999994,6.282999999999995,3.1109999999999975,0.6099999999999999,20,18,16,6,75,59,27,6,4,0.5,27,3.75,6,Lc,0.11305333333333333,0.10649152542372882,0.11522222222222221,0.10166666666666667,0.5,20,15,30,1,4
1,16,31,1,6,3.842999999999997,15,33,3,6,77,10,16.957999999999988,0.244,1.3419999999999992,1.3419999999999992,20,2,10,9,152,2,11,10,6,0.5,39,5.25,6,Lc,0.11156578947368422,0.122,0.122,0.13419999999999999,0.5,20,15,30,1,4
1,16,32,1,3,5.306999999999996,16,55,28,34,33,29,7.014999999999995,0.9149999999999996,0.366,3.476999999999997,20,6,2,14,70,8,3,25,5,1,60,5,6,Lc,0.10021428571428571,0.114375,0.122,0.13908,0.5,20,15,30,1,4
1,17,33,1,10,7.380999999999994,16,67,87,96,88,65,17.201999999999988,2.622999999999998,0.183,2.1959999999999984,20,13,2,10,148,19,2,17,3,0.5,22,3.25,6,Lc,0.11622972972972972,0.13805263157894737,0.0915,0.12917647058823528,0.5,20,15,30,1,4
1,17,34,1,7,4.6969999999999965,16,47,17,20,14,23,6.099999999999996,3.4159999999999973,3.781999999999997,3.0499999999999976,20,17,17,17,61,30,32,26,6,1,72,6,6,Lc,0.1,0.11386666666666666,0.1181875,0.1173076923076923,0.5,20,15,30,1,4
1,18,35,1,7,6.465999999999995,14,59,15,13,22,24,6.8929999999999945,14.151999999999989,1.1589999999999994,1.524999999999999,16,19,8,9,61,126,10,11,6,1,72,6,6,Lc,0.11299999999999999,0.11231746031746032,0.1159,0.13863636363636364,0.5,20,15,30,1,4
1,18,36,1,6,4.818999999999996,17,39,33,36,34,1,10.247999999999992,0.9759999999999995,5.306999999999996,6.404999999999995,20,7,18,17,85,8,54,61,6,0.5,36,5.25,6,Lc,0.12056470588235295,0.122,0.09827777777777778,0.105,0.5,20,15,30,1,4
1,1,1,0,9,10.796999999999992,20,90,63,62,65,89,13.907999999999989,2.744999999999998,1.8909999999999987,2.9889999999999977,20,14,8,14,113,26,15,27,4,0.5,27,3.75,6,Lc,0.12307964601769911,0.10557692307692307,0.12606666666666666,0.11070370370370371,0.5,20,15,30,1,5
1,1,2,0,5,5.977999999999995,17,48,41,43,15,39,8.722999999999994,6.526999999999995,4.147999999999997,0.366,20,18,17,3,64,56,34,4,5,0.5,36,5.25,6,Lc,0.13629687499999998,0.11655357142857142,0.122,0.0915,0.5,20,15,30,1,5
1,2,3,0,7,9.637999999999993,20,80,21,55,51,52,16.652999999999988,9.881999999999993,4.513999999999997,0.488,20,19,17,5,153,84,37,5,6,0.5,30,4.5,6,Lc,0.10884313725490197,0.11764285714285715,0.122,0.09759999999999999,0.5,20,15,30,1,5
1,2,4,0,9,6.465999999999995,18,53,71,66,67,9,8.844999999999994,4.330999999999997,2.2569999999999983,4.391999999999997,20,16,14,17,74,35,21,32,4,0.5,30,4.5,6,Lc,0.11952702702702703,0.12374285714285713,0.10747619047619048,0.13725,0.5,20,15,30,1,5
1,3,5,0,9,7.8689999999999936,18,68,65,72,68,107,12.87099999999999,0.6709999999999998,2.0129999999999986,10.796999999999992,20,4,9,17,114,5,14,87,4,0.5,26,3.5,6,Lc,0.11290350877192983,0.13419999999999999,0.1437857142857143,0.12410344827586206,0.5,20,15,30,1,5
1,3,6,0,2,10.003999999999992,18,82,54,55,50,21,11.77299999999999,12.93199999999999,0.305,1.463999999999999,20,18,2,9,100,105,3,10,4,0.5,30,4.5,6,Lc,0.11772999999999999,0.12316190476190476,0.10166666666666667,0.1464,0.5,20,15,30,1,5
1,4,7,0,1,7.258999999999994,18,62,77,82,78,104,14.456999999999988,0.366,4.086999999999997,13.35899999999999,20,3,17,17,115,3,30,112,3,0.5,20,2.75,6,Lc,0.12571304347826087,0.122,0.13623333333333335,0.11927678571428571,0.5,20,15,30,1,5
1,4,8,0,8,8.661999999999994,19,77,115,117,110,61,16.896999999999988,0.122,1.8909999999999987,9.027999999999993,20,1,13,17,142,1,18,75,2,0.5,16,2.5,6,Lc,0.11899295774647888,0.122,0.10505555555555555,0.12037333333333332,0.5,20,15,30,1,5
1,5,9,0,5,7.380999999999994,19,64,47,45,40,17,13.05399999999999,4.147999999999997,0.183,6.648999999999995,20,17,2,17,115,35,2,58,5,0.5,36,5.25,6,Lc,0.11351304347826086,0.11851428571428571,0.0915,0.11463793103448276,0.5,20,15,30,1,5
1,5,10,0,2,8.539999999999994,18,66,60,52,109,5,14.94499999999999,2.9279999999999977,20.617999999999984,8.905999999999993,20,15,18,17,117,21,176,75,4,0,16,4,6,Lc,0.12773504273504274,0.13942857142857143,0.11714772727272726,0.11874666666666665,0.5,20,15,30,1,5
1,6,11,1,3,7.563999999999994,20,62,31,26,36,11,15.310999999999988,1.2199999999999993,4.208999999999997,14.212999999999989,20,9,15,17,128,13,35,125,5,0.5,36,5.25,6,Lc,0.1196171875,0.09384615384615384,0.12025714285714285,0.11370399999999999,0.5,20,15,30,1,5
1,6,12,1,10,9.637999999999993,19,85,95,94,15,96,12.80999999999999,1.0979999999999994,8.051999999999994,0.8539999999999996,20,6,18,6,111,8,64,7,3,0.5,24,3.75,6,Lc,0.1154054054054054,0.13724999999999998,0.1258125,0.122,0.5,20,15,30,1,5
1,7,13,1,6,5.062999999999996,16,45,7,3,8,9,12.99299999999999,0.244,0.5489999999999999,4.269999999999997,20,2,5,16,115,2,7,38,6,1,72,6,6,Lc,0.11298260869565217,0.122,0.07842857142857143,0.11236842105263158,0.5,20,15,30,1,5
1,7,14,1,7,7.258999999999994,14,59,19,18,14,54,9.759999999999993,1.646999999999999,10.125999999999992,10.308999999999992,20,9,18,17,79,12,71,80,6,0.5,40,5.5,6,Lc,0.12354430379746835,0.13724999999999998,0.14261971830985914,0.1288625,0.5,20,15,30,1,5
1,8,15,1,1,7.807999999999994,17,62,13,50,74,103,149.02300000000886,0.488,0.122,0.061,20,4,2,1,1206,4,2,1,3,0,15,3.75,6,Lc,0.12356799336650082,0.122,0.061,0.061,0.5,20,15,30,1,5
1,8,16,1,5,5.916999999999995,17,51,46,41,47,44,10.491999999999992,0.244,2.3789999999999982,2.3179999999999983,20,2,13,11,90,2,23,20,5,1,60,5,6,Lc,0.11657777777777777,0.122,0.10343478260869565,0.1159,0.5,20,15,30,1,5
1,9,17,1,5,8.417999999999994,18,70,39,9,79,8,9.088999999999993,71.43100000000081,4.452999999999997,21.105999999999984,20,19,16,17,76,596,39,146,5,0,20,5,6,Lc,0.11959210526315789,0.1198506711409396,0.11417948717948717,0.14456164383561643,0.5,20,15,30,1,5
1,9,18,1,10,10.674999999999992,18,88,95,89,34,24,15.06699999999999,5.001999999999996,12.80999999999999,0.6709999999999998,20,16,18,6,124,39,100,6,3,0,17,4.25,6,Lc,0.12150806451612903,0.12825641025641024,0.1281,0.11183333333333333,0.5,20,15,30,1,5
1,10,19,1,8,10.186999999999992,20,96,112,49,33,118,16.16499999999999,13.29799999999999,7.014999999999994,0.183,20,19,18,2,150,111,52,2,2,0,13,3.25,6,Lc,0.10776666666666666,0.1198018018018018,0.13490384615384615,0.0915,0.5,20,15,30,1,5
1,10,20,1,5,5.245999999999996,15,46,40,46,41,37,8.173999999999994,0.488,2.439999999999998,1.463999999999999,20,4,10,6,64,4,21,9,5,1,60,5,6,Lc,0.12771875,0.122,0.11619047619047619,0.16266666666666665,0.5,20,15,30,1,5
1,11,21,1,9,6.526999999999995,18,57,61,71,66,62,10.247999999999992,1.0369999999999995,4.452999999999997,4.6969999999999965,20,7,15,16,85,10,33,43,4,1,48,4,6,Lc,0.12056470588235295,0.1037,0.13493939393939394,0.10923255813953489,0.5,20,15,30,1,5
1,11,22,1,10,6.8929999999999945,20,60,96,86,85,58,11.345999999999991,1.2809999999999993,4.513999999999997,0.8539999999999996,20,7,18,6,99,8,32,9,3,0.5,22,3.25,6,Lc,0.1146060606060606,0.160125,0.1410625,0.09488888888888888,0.5,20,15,30,1,5
1,12,23,1,5,4.513999999999997,14,38,46,43,41,47,5.428999999999997,5.489999999999996,1.8909999999999987,0.8539999999999996,20,18,11,7,48,48,18,9,5,1,60,5,6,Lc,0.11310416666666666,0.11437499999999999,0.10505555555555555,0.09488888888888888,0.5,20,15,30,1,5
1,12,24,1,3,9.393999999999993,20,95,36,76,73,120,13.480999999999991,20.068999999999985,25.00999999999998,1.585999999999999,20,19,18,12,127,158,181,12,5,0,13,3.25,6,Lc,0.1061496062992126,0.12701898734177217,0.1381767955801105,0.13216666666666665,0.5,20,15,30,1,5
1,13,25,1,7,9.088999999999993,20,78,18,13,24,21,12.13899999999999,11.528999999999991,1.524999999999999,4.147999999999997,20,19,10,15,103,105,14,35,6,1,72,6,6,Lc,0.11785436893203882,0.10979999999999998,0.10892857142857143,0.11851428571428571,0.5,20,15,30,1,5
1,13,26,1,5,7.685999999999994,19,75,39,2,54,52,9.515999999999993,40.32099999999997,0.061,0.061,20,19,1,1,91,335,1,1,5,0,19,4.75,6,Lc,0.10457142857142858,0.12036119402985075,0.061,0.061,0.5,20,15,30,1,5
1,14,27,1,7,8.295999999999994,17,79,20,52,16,17,18.116999999999987,4.208999999999997,3.0499999999999976,1.585999999999999,20,14,12,8,170,36,26,10,6,0.5,40,5.5,6,Lc,0.10657058823529413,0.11691666666666667,0.11730769230769231,0.1586,0.5,20,15,30,1,5
1,14,28,1,5,4.452999999999997,15,32,43,45,42,38,6.587999999999996,5.672999999999996,0.5489999999999999,0.244,20,18,6,3,51,48,7,3,5,1,60,5,6,Lc,0.1291764705882353,0.1181875,0.07842857142857143,0.08133333333333333,0.5,20,15,30,1,5
1,15,29,1,5,6.526999999999995,12,50,43,37,39,44,10.125999999999992,8.661999999999994,1.9519999999999986,1.4029999999999991,20,19,16,10,83,69,23,16,5,1,60,5,6,Lc,0.122,0.12553623188405796,0.08486956521739131,0.0876875,0.5,20,15,30,1,5
1,15,30,1,8,10.430999999999992,19,100,113,114,112,3,11.83399999999999,6.587999999999995,7.136999999999994,3.598999999999997,20,19,18,14,108,57,62,32,2,0.5,18,3,6,Lc,0.10957407407407407,0.11557894736842104,0.11511290322580646,0.11246874999999999,0.5,20,15,30,1,5
1,16,31,1,3,9.759999999999993,20,84,28,27,26,35,13.05399999999999,0.7929999999999997,3.659999999999997,12.93199999999999,20,8,15,17,110,9,28,112,5,1,60,5,6,Lc,0.11867272727272726,0.08811111111111111,0.1307142857142857,0.1154642857142857,0.5,20,15,30,1,5
1,16,32,1,5,5.7339999999999955,13,48,44,42,40,45,8.173999999999994,0.6709999999999998,0.488,8.234999999999994,20,7,2,17,72,9,2,73,5,1,60,5,6,Lc,0.11352777777777777,0.07455555555555556,0.244,0.11280821917808219,0.5,20,15,30,1,5
1,17,33,1,9,8.112999999999994,19,62,61,23,63,14,8.844999999999994,17.567999999999987,1.9519999999999986,0.9149999999999996,20,19,8,7,71,132,10,8,4,0,20,5,6,Lc,0.12457746478873238,0.1330909090909091,0.19519999999999998,0.114375,0.5,20,15,30,1,5
1,17,34,1,2,7.563999999999994,16,63,49,55,50,34,10.674999999999992,2.8669999999999978,1.524999999999999,15.005999999999988,20,12,8,17,94,19,14,127,4,0.5,29,4.25,6,Lc,0.11356382978723405,0.15089473684210525,0.10892857142857143,0.11815748031496064,0.5,20,15,30,1,5
1,1,1,0,5,7.319999999999994,18,73,43,45,48,40,11.650999999999991,1.8299999999999987,0.183,4.818999999999996,20,12,2,16,100,20,2,44,5,1,60,5,6,Lc,0.11650999999999999,0.0915,0.0915,0.10952272727272727,0.5,20,15,30,1,6
1,1,2,0,9,8.539999999999994,19,67,67,68,70,33,8.722999999999994,5.7949999999999955,6.343999999999995,0.6709999999999998,20,17,18,2,69,48,41,2,4,0.5,29,4.25,6,Lc,0.12642028985507245,0.12072916666666667,0.15473170731707317,0.3355,0.5,20,15,30,1,6
1,2,3,0,8,8.905999999999993,19,76,117,112,60,115,15.12799999999999,0.427,5.306999999999996,0.8539999999999996,20,4,17,7,130,5,40,9,2,0.5,16,2.5,6,Lc,0.11636923076923077,0.0854,0.132675,0.09488888888888888,0.5,20,15,30,1,6
1,2,4,0,9,6.709999999999995,18,55,61,66,103,62,7.319999999999995,4.6969999999999965,5.611999999999996,3.1109999999999975,20,17,18,15,61,40,50,28,4,0.5,26,3.5,6,Lc,0.12,0.11742499999999999,0.11223999999999999,0.11110714285714286,0.5,20,15,30,1,6
1,3,5,0,5,10.430999999999992,20,80,43,46,40,98,14.51799999999999,2.3179999999999983,10.674999999999992,1.7079999999999989,20,13,18,10,118,18,85,16,5,0.5,32,4.25,6,Lc,0.12303389830508474,0.12877777777777777,0.12558823529411764,0.10675000000000001,0.5,20,15,30,1,6
1,3,6,0,6,8.417999999999994,16,64,6,10,3,5,9.027999999999993,7.258999999999994,1.463999999999999,2.8669999999999978,20,19,6,14,69,66,8,22,6,1,72,6,6,Lc,0.13084057971014493,0.10998484848484849,0.183,0.1303181818181818,0.5,20,15,30,1,6
1,4,7,0,1,6.282999999999995,15,54,81,79,102,80,11.89499999999999,2.9889999999999977,6.404999999999995,2.439999999999998,20,17,17,15,116,25,46,27,3,0.5,20,2.75,6,Lc,0.10254310344827586,0.11956,0.13923913043478262,0.09037037037037038,0.5,20,15,30,1,6
1,4,8,0,2,6.038999999999995,18,52,8,91,50,111,41.17499999999997,0.061,0.8539999999999996,4.025999999999997,20,1,7,15,361,1,8,33,4,0,15,3.75,6,Lc,0.11405817174515236,0.061,0.10675,0.122,0.5,20,15,30,1,6
1,5,9,0,5,9.698999999999993,19,92,46,45,43,8,13.602999999999989,0.488,4.635999999999997,15.737999999999987,20,4,17,17,128,5,42,137,5,0.5,36,5.25,6,Lc,0.1062734375,0.09759999999999999,0.11038095238095239,0.11487591240875912,0.5,20,15,30,1,6
1,5,10,0,3,6.343999999999995,18,61,33,35,26,29,7.380999999999995,5.306999999999996,4.574999999999997,4.879999999999996,20,18,16,16,71,43,42,39,5,1,60,5,6,Lc,0.10395774647887324,0.12341860465116278,0.10892857142857143,0.12512820512820513,0.5,20,15,30,1,6
1,6,11,1,7,6.953999999999994,20,58,19,23,21,20,14.700999999999988,0.305,0.244,1.0369999999999995,20,4,2,10,123,4,2,13,6,1,72,6,6,Lc,0.11952032520325202,0.07625,0.122,0.07976923076923077,0.5,20,15,30,1,6
1,6,12,1,9,7.746999999999994,17,59,66,69,65,5,8.722999999999994,4.574999999999997,9.454999999999993,0.366,20,19,18,4,70,42,82,4,4,0.5,30,4.5,6,Lc,0.12461428571428572,0.10892857142857143,0.11530487804878048,0.0915,0.5,20,15,30,1,6
1,7,13,1,4,10.918999999999992,17,87,103,7,33,99,17.262999999999987,26.47399999999998,2.683999999999998,0.244,20,19,12,3,140,225,18,3,2,0,15,3.75,6,Lc,0.12330714285714285,0.11766222222222221,0.1491111111111111,0.08133333333333333,0.5,20,15,30,1,6
1,7,14,1,7,5.062999999999996,17,49,13,24,18,23,10.918999999999992,1.7079999999999989,0.244,1.0369999999999995,20,10,2,6,93,15,2,6,6,1,72,6,6,Lc,0.11740860215053762,0.11386666666666666,0.122,0.17283333333333334,0.5,20,15,30,1,6
1,8,15,1,8,6.648999999999995,16,61,109,114,113,117,10.247999999999992,1.2199999999999993,5.245999999999996,0.427,20,10,18,3,96,11,45,4,2,1,24,2,6,Lc,0.10675000000000001,0.1109090909090909,0.11657777777777777,0.10675,0.5,20,15,30,1,6
1,8,16,1,6,8.051999999999994,18,63,3,1,11,6,9.881999999999993,14.700999999999988,2.3179999999999983,0.061,20,19,11,1,82,120,15,1,6,1,72,6,6,Lc,0.12051219512195122,0.12250833333333333,0.15453333333333333,0.061,0.5,20,15,30,1,6
1,9,17,1,5,8.417999999999994,17,74,39,41,2,116,13.60299999999999,1.8299999999999987,28.120999999999977,6.038999999999995,20,11,18,17,116,15,241,54,5,0,18,4.5,6,Lc,0.11726724137931034,0.122,0.11668464730290456,0.11183333333333333,0.5,20,15,30,1,6
1,9,18,1,2,8.234999999999994,16,70,53,56,57,102,16.591999999999988,0.7929999999999997,0.7319999999999998,7.441999999999994,20,4,7,17,133,5,8,58,4,0.5,26,3.5,6,Lc,0.12475187969924811,0.1586,0.0915,0.12831034482758621,0.5,20,15,30,1,6
1,10,19,1,7,8.539999999999994,18,72,17,20,15,16,9.332999999999993,1.7079999999999989,4.879999999999996,2.3789999999999982,20,11,16,13,79,15,40,23,6,1,72,6,6,Lc,0.11813924050632911,0.11386666666666667,0.122,0.10343478260869564,0.5,20,15,30,1,6
1,10,20,1,6,13.724999999999989,19,119,7,6,3,96,13.846999999999989,3.0499999999999976,8.478999999999994,4.025999999999997,20,17,18,16,121,30,79,37,6,0.5,39,5.25,6,Lc,0.11443801652892562,0.10166666666666666,0.10732911392405063,0.10881081081081082,0.5,20,15,30,1,6
1,11,21,1,9,10.125999999999992,20,88,63,71,91,31,15.737999999999989,3.1719999999999975,1.463999999999999,0.122,20,16,10,1,128,26,15,1,4,0,16,4,6,Lc,0.122953125,0.122,0.0976,0.122,0.5,20,15,30,1,6
1,11,22,1,2,7.075999999999994,19,73,117,77,114,110,25.68099999999998,15.432999999999987,2.0129999999999986,13.785999999999989,20,19,13,17,226,127,19,109,4,0.5,15,2.25,6,Lc,0.11363274336283186,0.12151968503937007,0.10594736842105264,0.12647706422018348,0.5,20,15,30,1,6
1,12,23,1,8,8.722999999999994,18,72,112,113,115,111,10.796999999999992,4.147999999999997,1.646999999999999,2.500999999999998,20,15,13,12,89,29,16,20,2,1,24,2,6,Lc,0.12131460674157303,0.14303448275862068,0.1029375,0.12505,0.5,20,15,30,1,6
1,12,24,1,3,11.223999999999991,20,112,34,33,25,3,15.676999999999989,1.524999999999999,10.430999999999992,1.0369999999999995,20,8,18,6,155,10,92,10,5,0.5,36,5.25,6,Lc,0.10114193548387096,0.1525,0.11338043478260869,0.1037,0.5,20,15,30,1,6
1,13,25,1,1,9.088999999999993,20,71,78,36,29,79,15.920999999999989,2.0129999999999986,1.0979999999999994,0.6709999999999998,20,13,4,7,122,19,6,7,3,0,16,4,6,Lc,0.1305,0.10594736842105262,0.183,0.09585714285714285,0.5,20,15,30,1,6
1,13,26,1,7,10.369999999999992,19,96,16,17,14,19,17.689999999999987,6.526999999999995,2.9889999999999977,1.4029999999999991,20,19,16,10,164,52,28,12,6,1,72,6,6,Lc,0.10786585365853658,0.12551923076923077,0.10675,0.11691666666666667,0.5,20,15,30,1,6
1,14,27,1,4,8.417999999999994,17,79,105,108,1,7,13.78599999999999,7.136999999999994,2.1959999999999984,0.427,20,19,14,2,123,52,18,2,2,0,16,4,6,Lc,0.11208130081300813,0.13724999999999998,0.122,0.2135,0.5,20,15,30,1,6
1,14,28,1,8,9.027999999999993,18,74,109,114,85,33,9.332999999999993,6.526999999999995,0.305,6.953999999999994,20,16,2,17,79,48,2,60,2,0,12,3,6,Lc,0.11813924050632911,0.13597916666666665,0.1525,0.11589999999999999,0.5,20,15,30,1,6
1,15,29,1,9,7.441999999999994,17,63,64,69,72,87,11.589999999999991,1.646999999999999,1.2199999999999993,7.014999999999994,20,11,10,16,96,15,11,55,4,0.5,27,3.75,6,Lc,0.12072916666666667,0.1098,0.1109090909090909,0.12754545454545455,0.5,20,15,30,1,6
1,15,30,1,2,9.637999999999993,20,83,50,57,54,59,10.918999999999992,1.0979999999999994,9.454999999999993,3.476999999999997,20,8,18,16,97,8,75,34,4,1,48,4,6,Lc,0.11256701030927835,0.13724999999999998,0.12606666666666666,0.10226470588235294,0.5,20,15,30,1,6
1,16,31,1,5,7.136999999999994,19,61,114,18,94,93,17.750999999999987,23.91199999999998,0.061,0.305,20,18,1,2,142,183,1,3,5,0,14,3.5,6,Lc,0.1250070422535211,0.13066666666666665,0.061,0.10166666666666667,0.5,20,15,30,1,6
1,16,32,1,1,7.502999999999994,19,64,83,74,73,79,7.685999999999994,6.8319999999999945,0.9149999999999996,2.9889999999999977,20,18,6,12,66,58,6,21,3,1,36,3,6,Lc,0.11645454545454545,0.11779310344827586,0.1525,0.14233333333333334,0.5,20,15,30,1,6
1,17,33,1,2,7.685999999999994,19,61,51,53,22,52,11.101999999999991,3.2939999999999974,5.428999999999996,2.622999999999998,20,14,18,11,96,30,48,19,4,0.5,30,4.5,6,Lc,0.11564583333333332,0.1098,0.11310416666666666,0.13805263157894737,0.5,20,15,30,1,6
1,17,34,1,3,7.197999999999994,19,70,29,35,34,30,9.332999999999993,2.683999999999998,7.441999999999994,3.720999999999997,20,13,18,17,92,24,60,38,5,1,60,5,6,Lc,0.10144565217391305,0.11183333333333333,0.12403333333333331,0.09792105263157895,0.5,20,15,30,1,6
1,18,35,1,6,8.600999999999994,18,70,2,5,3,47,13.96899999999999,0.427,18.421999999999986,0.061,20,3,18,1,113,3,155,1,6,0.5,41,5.75,6,Lc,0.12361946902654868,0.14233333333333334,0.11885161290322581,0.061,0.5,20,15,30,1,6
1,18,36,1,3,11.040999999999991,20,94,32,36,93,22,13.48099999999999,4.269999999999997,0.183,1.7689999999999988,20,15,2,9,116,31,3,11,5,0,19,4.75,6,Lc,0.1162155172413793,0.13774193548387095,0.061,0.1608181818181818,0.5,20,15,30,1,6
1,1,1,0,5,10.064999999999992,20,110,46,40,16,39,11.77299999999999,2.1959999999999984,4.635999999999997,3.2939999999999974,20,14,17,15,127,23,39,28,5,0.5,36,5.25,6,Lc,0.09270078740157481,0.09547826086956522,0.11887179487179486,0.11764285714285715,0.5,20,15,30,1,7
1,1,2,0,8,10.308999999999992,19,89,117,120,114,89,17.445999999999987,1.1589999999999994,2.0129999999999986,5.916999999999995,20,7,13,17,144,10,17,46,2,0.5,15,2.25,6,Lc,0.12115277777777778,0.1159,0.11841176470588236,0.1286304347826087,0.5,20,15,30,1,7
1,2,3,0,8,10.003999999999992,20,89,117,111,114,119,18.177999999999987,1.8909999999999987,1.1589999999999994,1.2809999999999993,20,11,9,9,168,14,10,9,2,1,24,2,6,Lc,0.10820238095238095,0.13507142857142856,0.1159,0.14233333333333334,0.5,20,15,30,1,7
1,2,4,0,2,12.74899999999999,19,107,54,52,18,102,15.249999999999988,8.173999999999994,0.9149999999999996,4.086999999999997,20,19,5,15,126,72,6,29,4,0,16,4,6,Lc,0.12103174603174605,0.11352777777777777,0.1525,0.14093103448275862,0.5,20,15,30,1,7
1,3,5,0,3,10.857999999999992,19,80,33,32,27,36,21.776999999999983,0.305,4.025999999999997,0.366,20,2,15,5,170,2,34,5,5,1,60,5,6,Lc,0.1281,0.1525,0.11841176470588236,0.0732,0.5,20,15,30,1,7
1,3,6,0,5,7.8689999999999936,19,69,46,40,41,45,15.066999999999988,2.0129999999999986,0.061,2.561999999999998,20,5,1,13,131,7,1,24,5,1,60,5,6,Lc,0.11501526717557252,0.28757142857142853,0.061,0.10675,0.5,20,15,30,1,7
1,4,7,0,3,6.160999999999995,18,51,30,28,34,21,9.759999999999993,5.367999999999996,4.879999999999996,7.258999999999994,20,18,16,17,78,40,34,59,5,0.5,36,5.25,6,Lc,0.12512820512820513,0.13419999999999999,0.14352941176470588,0.12303389830508474,0.5,20,15,30,1,7
1,4,8,0,8,5.489999999999996,16,47,7,1,87,11,47.33599999999996,29.950999999999976,0.061,0.061,20,19,1,1,410,257,1,1,2,0.5,39,5.25,6,Lc,0.11545365853658536,0.11654085603112839,0.061,0.061,0.5,20,15,30,1,7
1,5,9,0,8,7.9299999999999935,19,68,118,39,120,114,18.543999999999986,3.476999999999997,0.305,1.1589999999999994,20,16,3,9,145,28,3,11,2,0.5,17,2.75,6,Lc,0.1278896551724138,0.12417857142857143,0.10166666666666667,0.10536363636363637,0.5,20,15,30,1,7
1,5,10,0,3,10.674999999999992,19,90,30,26,107,34,15.49399999999999,1.1589999999999994,15.371999999999987,0.9149999999999996,20,9,18,9,130,10,120,10,5,0.5,32,4.25,6,Lc,0.11918461538461539,0.1159,0.1281,0.0915,0.5,20,15,30,1,7
1,6,11,1,8,8.722999999999994,19,76,115,111,110,114,11.162999999999991,3.2939999999999974,2.500999999999998,11.89499999999999,20,16,13,17,96,30,28,87,2,1,24,2,6,Lc,0.11628125,0.1098,0.08932142857142857,0.13672413793103447,0.5,20,15,30,1,7
1,6,12,1,3,6.282999999999995,16,63,1,55,32,99,47.57999999999996,0.305,0.061,0.122,20,3,1,2,389,3,1,2,5,0,17,4.25,6,Lc,0.12231362467866322,0.10166666666666667,0.061,0.061,0.5,20,15,30,1,7
1,7,13,1,8,3.903999999999997,15,31,1,49,94,32,58.98699999999995,0.122,0.061,0.061,20,2,1,1,488,2,1,1,2,0,18,4.5,6,Lc,0.120875,0.061,0.061,0.061,0.5,20,15,30,1,7
1,7,14,1,5,6.587999999999995,19,60,37,43,45,103,12.56599999999999,0.244,6.343999999999995,0.427,20,2,18,3,108,2,54,3,5,0.5,32,4.25,6,Lc,0.11635185185185185,0.122,0.11748148148148148,0.14233333333333334,0.5,20,15,30,1,7
1,8,15,1,5,9.210999999999993,19,70,42,38,48,43,11.345999999999991,0.427,7.258999999999994,6.648999999999995,20,4,18,17,89,4,72,58,5,1,60,5,6,Lc,0.12748314606741573,0.10675,0.10081944444444445,0.11463793103448276,0.5,20,15,30,1,7
1,8,16,1,9,6.953999999999994,20,69,68,71,105,80,15.24999999999999,3.1109999999999975,10.308999999999992,1.0979999999999994,20,13,18,7,139,17,91,10,4,0,13,3.25,6,Lc,0.10971223021582734,0.183,0.1132857142857143,0.1098,0.5,20,15,30,1,7
1,9,17,1,2,7.319999999999994,19,63,15,56,41,49,43.43199999999997,0.244,0.244,0.183,20,4,2,2,351,4,2,2,4,0,19,4.75,6,Lc,0.12373789173789174,0.061,0.122,0.0915,0.5,20,15,30,1,7
1,9,18,1,6,8.234999999999994,19,74,8,4,12,11,8.661999999999994,9.576999999999993,1.463999999999999,0.061,20,19,9,1,78,80,11,1,6,1,72,6,6,Lc,0.11105128205128205,0.11971249999999999,0.1330909090909091,0.061,0.5,20,15,30,1,7
1,10,19,1,9,5.123999999999996,18,47,69,43,70,37,5.855999999999996,4.391999999999997,1.1589999999999994,3.2329999999999974,20,18,9,16,53,37,10,29,4,0,18,4.5,6,Lc,0.11049056603773585,0.11870270270270271,0.11589999999999999,0.11148275862068965,0.5,20,15,30,1,7
1,10,20,1,7,8.722999999999994,18,84,15,14,18,19,11.83399999999999,15.005999999999988,1.7689999999999988,0.305,20,19,13,1,110,124,16,1,6,1,72,6,6,Lc,0.10758181818181818,0.12101612903225807,0.1105625,0.305,0.5,20,15,30,1,7
1,11,21,1,7,7.8689999999999936,19,75,15,19,14,17,13.29799999999999,1.7079999999999989,7.014999999999994,0.7319999999999998,20,9,18,5,119,12,62,5,6,1,72,6,6,Lc,0.11174789915966386,0.14233333333333334,0.11314516129032257,0.1464,0.5,20,15,30,1,7
1,11,22,1,8,6.953999999999994,19,63,112,118,120,53,16.04299999999999,0.061,4.208999999999997,12.68799999999999,20,1,17,17,135,1,35,111,2,0.5,16,2.5,6,Lc,0.11883703703703703,0.061,0.12025714285714284,0.1143063063063063,0.5,20,15,30,1,7
1,12,23,1,6,4.330999999999997,16,39,4,6,9,8,10.125999999999992,0.488,1.2199999999999993,5.245999999999996,20,4,8,14,90,4,9,33,6,1,72,6,6,Lc,0.11251111111111112,0.122,0.13555555555555554,0.15896969696969696,0.5,20,15,30,1,7
1,12,24,1,3,7.563999999999994,16,62,31,34,33,28,9.881999999999993,3.1719999999999975,4.269999999999997,4.6969999999999965,20,14,15,16,84,32,35,42,5,1,60,5,6,Lc,0.11764285714285715,0.09912499999999999,0.122,0.11183333333333333,0.5,20,15,30,1,7
1,13,25,1,10,5.855999999999995,19,51,85,56,91,95,8.661999999999994,5.062999999999996,0.061,1.585999999999999,20,18,1,12,75,49,1,16,3,0.5,22,3.25,6,Lc,0.11549333333333332,0.1033265306122449,0.061,0.09912499999999999,0.5,20,15,30,1,7
1,13,26,1,3,10.369999999999992,19,97,28,79,71,109,18.421999999999986,36.59999999999997,2.8669999999999978,1.585999999999999,20,19,13,9,157,292,26,12,5,0,14,3.5,6,Lc,0.11733757961783439,0.12534246575342464,0.11026923076923077,0.13216666666666665,0.5,20,15,30,1,7
1,14,27,1,9,4.574999999999997,14,38,69,4,100,103,7.014999999999995,108.76300000000512,0.183,0.122,20,19,3,2,62,826,3,2,4,0,14,3.5,6,Lc,0.11314516129032258,0.13167433414043583,0.061,0.061,0.5,20,15,30,1,7
1,14,28,1,7,11.223999999999991,20,99,15,20,13,14,14.273999999999988,0.366,7.807999999999994,2.1349999999999985,20,4,17,12,119,4,62,17,6,1,72,6,6,Lc,0.11994957983193276,0.0915,0.12593548387096773,0.12558823529411764,0.5,20,15,30,1,7
1,15,29,1,7,7.197999999999994,19,66,21,16,14,13,7.8689999999999944,6.038999999999995,9.698999999999993,2.0739999999999985,20,17,18,10,72,50,75,15,6,1,72,6,6,Lc,0.10929166666666666,0.12078,0.12932,0.13826666666666665,0.5,20,15,30,1,7
1,15,30,1,6,5.611999999999996,17,45,2,3,8,27,15.676999999999989,1.8299999999999987,0.061,0.6099999999999999,20,10,1,6,122,15,1,7,6,0.5,41,5.75,6,Lc,0.1285,0.122,0.061,0.08714285714285715,0.5,20,15,30,1,7
1,16,31,1,9,3.842999999999997,15,35,70,64,72,61,5.062999999999996,6.648999999999995,3.1109999999999975,0.183,20,19,12,2,47,55,20,2,4,1,48,4,6,Lc,0.10772340425531914,0.12089090909090909,0.15555,0.0915,0.5,20,15,30,1,7
1,16,32,1,6,5.855999999999995,13,41,11,5,8,2,5.916999999999995,3.476999999999997,0.7319999999999998,17.323999999999987,14,17,7,17,42,27,8,155,6,1,72,6,6,Lc,0.14088095238095238,0.12877777777777777,0.0915,0.11176774193548387,0.5,20,15,30,1,7
1,17,33,1,3,4.940999999999996,16,53,30,31,5,27,5.550999999999997,2.0739999999999985,31.597999999999974,0.061,20,13,18,1,59,22,252,1,5,0.5,36,5.25,6,Lc,0.09408474576271186,0.09427272727272727,0.12538888888888888,0.061,0.5,20,15,30,1,7
1,17,34,1,5,4.269999999999997,16,39,13,97,37,46,111.02000000000488,0.366,0.061,0.122,20,4,1,2,909,4,1,2,5,0,18,4.5,6,Lc,0.12213421342134213,0.0915,0.061,0.061,0.5,20,15,30,1,7
1,1,1,0,3,14.334999999999988,18,118,28,60,27,84,18.482999999999986,9.271999999999993,0.7929999999999997,0.366,20,19,8,3,162,74,8,3,5,0,17,4.25,6,Lc,0.11409259259259259,0.1252972972972973,0.09912499999999999,0.122,0.5,20,15,30,1,8
1,1,2,0,5,7.807999999999994,19,61,39,43,44,38,11.284999999999991,0.7319999999999998,6.953999999999994,1.4029999999999991,20,5,17,10,92,6,54,11,5,1,60,5,6,Lc,0.12266304347826086,0.122,0.12877777777777777,0.12754545454545455,0.5,20,15,30,1,8
1,2,3,0,7,6.648999999999995,20,63,15,18,77,50,16.28699999999999,0.427,0.305,3.2939999999999974,20,3,4,14,138,3,4,25,6,0,19,4.75,6,Lc,0.11802173913043477,0.14233333333333334,0.07625,0.13176,0.5,20,15,30,1,8
1,2,4,0,8,7.319999999999994,19,58,8,112,33,10,30.011999999999976,0.061,0.244,0.366,20,1,3,3,233,1,3,4,2,0,19,4.75,6,Lc,0.1288068669527897,0.061,0.08133333333333333,0.0915,0.5,20,15,30,1,8
1,3,5,0,9,7.563999999999994,20,67,69,66,67,35,12.74899999999999,3.2939999999999974,5.184999999999996,5.306999999999996,20,15,17,16,115,25,36,36,4,0.5,29,4.25,6,Lc,0.1108608695652174,0.13176,0.14402777777777778,0.14741666666666667,0.5,20,15,30,1,8
1,3,6,0,5,6.160999999999995,16,63,40,45,47,41,7.441999999999995,3.9649999999999967,0.8539999999999996,1.524999999999999,20,18,7,7,74,32,8,11,5,1,60,5,6,Lc,0.10056756756756756,0.12390625,0.10675,0.13863636363636364,0.5,20,15,30,1,8
1,4,7,0,7,7.624999999999994,17,65,14,13,22,23,9.454999999999993,21.410999999999984,3.1109999999999975,0.6709999999999998,20,19,13,7,80,169,26,8,6,1,72,6,6,Lc,0.1181875,0.12669230769230772,0.11965384615384615,0.083875,0.5,20,15,30,1,8
1,4,8,0,5,8.966999999999993,16,78,38,43,44,45,11.77299999999999,1.2199999999999993,3.476999999999997,0.6099999999999999,20,10,16,7,95,11,30,7,5,1,60,5,6,Lc,0.12392631578947369,0.1109090909090909,0.1159,0.08714285714285715,0.5,20,15,30,1,8
1,5,9,0,1,9.271999999999993,19,72,75,80,77,34,12.87099999999999,3.720999999999997,5.367999999999996,2.0129999999999986,20,17,18,12,99,40,50,21,3,0.5,23,3.5,6,Lc,0.130010101010101,0.093025,0.10736,0.09585714285714285,0.5,20,15,30,1,8
1,5,10,0,5,5.184999999999996,17,46,38,48,46,45,5.550999999999996,1.585999999999999,4.208999999999997,10.064999999999992,20,10,16,17,51,12,44,86,5,1,60,5,6,Lc,0.10884313725490195,0.13216666666666665,0.0956590909090909,0.11703488372093024,0.5,20,15,30,1,8
1,6,11,1,5,6.587999999999995,19,55,37,42,40,2,7.441999999999995,2.683999999999998,2.3179999999999983,11.89499999999999,20,11,9,17,61,20,14,97,5,0.5,36,5.25,6,Lc,0.122,0.13419999999999999,0.16557142857142856,0.12262886597938144,0.5,20,15,30,1,8
1,6,12,1,9,7.197999999999994,17,58,67,69,117,120,18.604999999999986,1.646999999999999,11.345999999999991,5.123999999999996,20,9,17,15,157,10,107,40,4,0,12,3,6,Lc,0.1185031847133758,0.16469999999999999,0.1060373831775701,0.1281,0.5,20,15,30,1,8
1,7,13,1,9,8.844999999999994,16,82,68,66,34,17,12.19999999999999,1.2199999999999993,18.299999999999986,1.524999999999999,20,7,18,10,108,12,143,14,4,0,19,4.75,6,Lc,0.11296296296296296,0.10166666666666667,0.12797202797202797,0.10892857142857143,0.5,20,15,30,1,8
1,7,14,1,5,6.770999999999995,18,64,47,42,37,46,7.502999999999995,6.404999999999995,2.1959999999999984,6.8929999999999945,20,19,13,17,71,62,24,57,5,1,60,5,6,Lc,0.10567605633802817,0.10330645161290322,0.0915,0.12092982456140351,0.5,20,15,30,1,8
1,8,15,1,3,9.698999999999993,19,80,25,36,34,29,15.49399999999999,1.3419999999999992,7.319999999999994,0.6709999999999998,20,8,18,5,127,11,58,6,5,1,60,5,6,Lc,0.122,0.122,0.12620689655172412,0.11183333333333333,0.5,20,15,30,1,8
1,8,16,1,5,7.990999999999993,19,80,43,41,40,90,8.295999999999994,10.918999999999992,0.488,0.7929999999999997,20,19,4,6,82,83,4,7,5,0.5,33,4.5,6,Lc,0.10117073170731707,0.13155421686746988,0.122,0.11328571428571428,0.5,20,15,30,1,8
1,9,17,1,5,8.234999999999994,20,60,37,48,66,78,10.796999999999992,5.306999999999996,11.528999999999991,0.183,20,17,17,3,80,43,96,3,5,0,17,4.25,6,Lc,0.13496249999999999,0.12341860465116279,0.12009375,0.061,0.5,20,15,30,1,8
1,9,18,1,8,11.89499999999999,19,86,115,110,114,54,16.28699999999999,0.183,2.9889999999999977,3.903999999999997,20,2,13,15,125,2,18,36,2,0.5,16,2.5,6,Lc,0.130296,0.0915,0.16605555555555554,0.10844444444444444,0.5,20,15,30,1,8
1,10,19,1,9,6.587999999999995,18,63,67,63,70,71,7.746999999999995,1.7689999999999988,2.622999999999998,8.295999999999994,20,11,13,17,69,15,19,80,4,1,48,4,6,Lc,0.11227536231884058,0.11793333333333333,0.13805263157894737,0.1037,0.5,20,15,30,1,8
1,10,20,1,6,6.343999999999995,18,66,10,6,3,7,14.212999999999989,0.122,0.305,6.770999999999995,20,2,2,15,123,2,2,58,6,1,72,6,6,Lc,0.11555284552845528,0.061,0.1525,0.11674137931034483,0.5,20,15,30,1,8
1,11,21,1,3,6.038999999999995,16,45,30,26,28,8,9.088999999999993,1.1589999999999994,5.672999999999996,23.362999999999982,20,10,16,17,66,15,45,194,5,0.5,36,5.25,6,Lc,0.1377121212121212,0.07726666666666666,0.12606666666666666,0.12042783505154639,0.5,20,15,30,1,8
1,11,22,1,9,10.674999999999992,20,94,61,64,62,63,16.40899999999999,3.0499999999999976,0.061,1.646999999999999,20,13,1,7,143,25,1,11,4,1,48,4,6,Lc,0.11474825174825175,0.122,0.061,0.14972727272727274,0.5,20,15,30,1,8
1,12,23,1,6,6.953999999999994,14,62,9,11,2,12,8.356999999999994,1.4029999999999991,7.197999999999994,0.061,20,9,17,1,74,10,58,1,6,1,72,6,6,Lc,0.11293243243243244,0.1403,0.12410344827586206,0.061,0.5,20,15,30,1,8
1,12,24,1,10,9.149999999999993,19,74,21,92,54,53,36.53899999999997,0.061,0.122,1.524999999999999,20,1,1,10,290,1,1,12,3,0,17,4.25,6,Lc,0.12599655172413793,0.061,0.122,0.12708333333333333,0.5,20,15,30,1,8
1,13,25,1,9,5.855999999999995,17,54,62,70,72,69,9.393999999999993,0.244,7.319999999999994,1.524999999999999,20,2,18,6,78,2,57,11,4,1,48,4,6,Lc,0.12043589743589744,0.122,0.12842105263157894,0.13863636363636364,0.5,20,15,30,1,8
1,13,26,1,5,8.722999999999994,20,75,39,10,95,58,13.60299999999999,41.84599999999997,1.9519999999999986,3.903999999999997,20,19,10,15,121,334,17,29,5,0,18,4.5,6,Lc,0.11242148760330578,0.1252874251497006,0.1148235294117647,0.1346206896551724,0.5,20,15,30,1,8
1,14,27,1,6,7.136999999999994,18,63,8,2,7,3,9.210999999999993,5.977999999999995,3.4159999999999973,15.249999999999988,20,16,16,17,80,49,31,123,6,1,72,6,6,Lc,0.11513749999999999,0.122,0.11019354838709677,0.12398373983739837,0.5,20,15,30,1,8
1,14,28,1,9,7.014999999999994,16,71,61,68,72,70,8.112999999999994,3.720999999999997,7.807999999999994,2.0129999999999986,20,16,17,9,83,28,63,16,4,1,48,4,6,Lc,0.09774698795180722,0.13289285714285715,0.12393650793650794,0.1258125,0.5,20,15,30,1,8
1,15,29,1,5,6.221999999999995,16,59,37,101,3,48,10.003999999999992,34.769999999999975,7.258999999999994,0.9759999999999995,20,19,18,8,89,286,59,11,5,0,18,4.5,6,Lc,0.11240449438202248,0.12157342657342657,0.12303389830508474,0.08872727272727272,0.5,20,15,30,1,8
1,15,30,1,3,5.855999999999995,19,61,35,32,27,34,6.465999999999996,7.319999999999994,0.9149999999999996,0.488,20,19,6,4,65,58,6,4,5,1,60,5,6,Lc,0.09947692307692307,0.12620689655172412,0.1525,0.122,0.5,20,15,30,1,8
1,16,31,1,7,6.587999999999995,19,61,21,16,15,18,8.844999999999994,2.500999999999998,11.040999999999991,0.488,20,10,18,5,79,13,87,5,6,1,72,6,6,Lc,0.1119620253164557,0.19238461538461535,0.1269080459770115,0.09759999999999999,0.5,20,15,30,1,8
1,16,32,1,1,11.83399999999999,18,89,80,73,53,51,12.87099999999999,4.635999999999997,0.5489999999999999,3.842999999999997,20,18,4,15,95,48,5,31,3,0,14,3.5,6,Lc,0.1354842105263158,0.09658333333333333,0.1098,0.12396774193548388,0.5,20,15,30,1,8
1,17,33,1,5,10.552999999999992,18,84,44,37,40,5,14.212999999999989,0.7929999999999997,0.183,4.208999999999997,20,5,1,13,111,7,1,33,5,0.5,36,5.25,6,Lc,0.12804504504504505,0.11328571428571428,0.183,0.12754545454545455,0.5,20,15,30,1,8
1,17,34,1,7,6.953999999999994,17,59,22,17,58,13,8.661999999999994,2.8669999999999978,4.208999999999997,4.330999999999997,20,10,14,14,72,18,32,37,6,0.5,40,5.5,6,Lc,0.12030555555555555,0.15927777777777777,0.13153125,0.11705405405405406,0.5,20,15,30,1,8
1,18,35,1,7,6.587999999999995,17,65,22,19,89,53,7.8689999999999944,2.439999999999998,13.663999999999989,0.122,20,11,18,2,74,14,112,2,6,0,19,4.75,6,Lc,0.10633783783783785,0.1742857142857143,0.122,0.061,0.5,20,15,30,1,8
1,18,36,1,1,8.417999999999994,17,58,80,6,98,81,9.515999999999993,3.2329999999999974,2.683999999999998,0.366,20,14,12,3,66,27,18,4,3,0,14,3.5,6,Lc,0.1441818181818182,0.11974074074074074,0.1491111111111111,0.0915,0.5,20,15,30,1,8
1,1,1,0,5,7.258999999999994,18,58,47,39,43,52,9.393999999999993,7.746999999999994,1.524999999999999,5.245999999999996,20,19,10,15,77,63,13,44,5,0.5,34,4.75,6,Lc,0.122,0.12296825396825396,0.11730769230769231,0.11922727272727272,0.5,20,15,30,1,9
1,1,2,0,9,9.759999999999993,19,83,69,14,72,62,10.918999999999992,5.062999999999996,6.8929999999999945,0.5489999999999999,20,16,17,4,93,34,63,5,4,0.5,30,4.5,6,Lc,0.11740860215053764,0.14891176470588233,0.1094126984126984,0.1098,0.5,20,15,30,1,9
1,2,3,0,3,10.430999999999992,19,86,35,27,36,56,15.31099999999999,8.295999999999994,0.427,6.587999999999995,20,19,2,17,126,65,2,56,5,0.5,34,4.75,6,Lc,0.12151587301587302,0.12763076923076921,0.2135,0.11764285714285715,0.5,20,15,30,1,9
1,2,4,0,5,8.661999999999994,20,80,46,39,44,38,14.21299999999999,3.781999999999997,9.515999999999993,0.305,20,17,18,4,125,28,65,5,5,1,60,5,6,Lc,0.113704,0.13507142857142856,0.1464,0.061,0.5,20,15,30,1,9
1,3,5,0,9,5.550999999999996,15,54,67,71,22,69,8.844999999999994,3.0499999999999976,5.977999999999995,0.183,20,16,17,2,77,26,52,2,4,0.5,30,4.5,6,Lc,0.11487012987012986,0.11730769230769231,0.11496153846153846,0.0915,0.5,20,15,30,1,9
1,3,6,0,6,10.064999999999992,20,90,1,12,5,11,14.76199999999999,2.622999999999998,1.8299999999999987,3.4159999999999973,20,13,11,11,133,19,17,22,6,1,72,6,6,Lc,0.1109924812030075,0.13805263157894737,0.10764705882352942,0.15527272727272726,0.5,20,15,30,1,9
1,4,7,0,5,6.099999999999995,18,54,45,47,39,37,11.83399999999999,0.244,0.122,3.2329999999999974,20,1,2,14,102,1,2,26,5,1,60,5,6,Lc,0.11601960784313725,0.244,0.061,0.12434615384615384,0.5,20,15,30,1,9
1,4,8,0,9,5.611999999999996,15,57,69,70,72,67,8.417999999999994,3.903999999999997,0.366,1.646999999999999,20,15,2,11,85,27,2,17,4,1,48,4,6,Lc,0.09903529411764705,0.14459259259259258,0.183,0.096882352941176475,0.5,20,15,30,1,9
1,5,9,0,9,9.942999999999993,19,93,68,64,65,8,11.162999999999991,12.07799999999999,1.7079999999999989,22.142999999999983,20,19,9,17,102,110,13,183,4,0.5,30,4.5,6,Lc,0.10944117647058824,0.1098,0.13138461538461538,0.121,0.5,20,15,30,1,9
1,5,10,0,7,6.221999999999995,19,59,14,21,19,23,7.258999999999995,4.879999999999996,10.674999999999992,0.305,20,17,18,4,70,38,90,4,6,1,72,6,6,Lc,0.1037,0.12842105263157894,0.1186111111111111,0.07625,0.5,20,15,30,1,9
1,6,11,1,5,5.611999999999996,16,53,46,44,39,47,7.624999999999995,2.500999999999998,6.038999999999995,1.646999999999999,20,11,17,11,69,12,51,13,5,1,60,5,6,Lc,0.11050724637681159,0.20841666666666667,0.11841176470588236,0.1266923076923077,0.5,20,15,30,1,9
1,6,12,1,2,6.526999999999995,17,55,60,50,101,86,9.515999999999993,2.3789999999999982,17.628999999999987,2.8669999999999978,20,14,18,14,86,19,135,25,4,0,13,3.25,6,Lc,0.11065116279069769,0.12521052631578947,0.1305851851851852,0.11467999999999999,0.5,20,15,30,1,9
1,7,13,1,5,6.404999999999995,17,50,46,45,38,41,7.197999999999995,5.489999999999996,0.061,10.674999999999992,20,17,1,17,57,42,1,80,5,1,60,5,6,Lc,0.12628070175438597,0.1307142857142857,0.061,0.1334375,0.5,20,15,30,1,9
1,7,14,1,6,10.308999999999992,16,82,11,2,1,4,11.77299999999999,3.720999999999997,13.11499999999999,0.6099999999999999,20,15,18,6,97,29,113,6,6,1,72,6,6,Lc,0.12137113402061854,0.12831034482758621,0.11606194690265485,0.10166666666666667,0.5,20,15,30,1,9
1,8,15,1,7,6.221999999999995,17,57,18,14,23,24,11.040999999999991,2.9889999999999977,0.427,0.9759999999999995,20,14,3,6,103,22,3,9,6,1,72,6,6,Lc,0.10719417475728155,0.13586363636363635,0.14233333333333334,0.10844444444444444,0.5,20,15,30,1,9
1,8,16,1,2,8.844999999999994,16,71,59,55,58,11,13.053999999999991,2.683999999999998,6.038999999999995,15.249999999999988,20,14,18,17,101,24,46,130,4,0.5,30,4.5,6,Lc,0.12924752475247525,0.11183333333333334,0.13128260869565217,0.11730769230769231,0.5,20,15,30,1,9
1,9,17,1,6,6.099999999999995,13,48,5,7,4,2,8.905999999999993,3.781999999999997,1.7079999999999989,3.720999999999997,20,14,11,14,65,33,14,22,6,1,72,6,6,Lc,0.13701538461538462,0.1146060606060606,0.122,0.1691363636363636,0.5,20,15,30,1,9
1,9,18,1,3,5.367999999999996,12,46,36,32,27,56,9.088999999999993,1.2809999999999993,3.2939999999999974,8.966999999999993,20,9,15,17,76,10,25,64,5,0.5,34,4.75,6,Lc,0.11959210526315789,0.1281,0.13176,0.140109375,0.5,20,15,30,1,9
1,10,19,1,9,6.648999999999995,18,57,71,70,65,62,9.576999999999993,3.781999999999997,1.0979999999999994,14.700999999999988,20,14,10,17,80,30,12,133,4,1,48,4,6,Lc,0.1197125,0.12606666666666666,0.0915,0.11053383458646616,0.5,20,15,30,1,9
1,10,20,1,2,5.977999999999995,16,50,53,57,50,20,11.284999999999991,0.244,2.744999999999998,57.034999999999954,20,3,13,17,96,3,26,474,4,0.5,30,4.5,6,Lc,0.11755208333333332,0.08133333333333333,0.10557692307692307,0.12032700421940927,0.5,20,15,30,1,9
1,11,21,1,5,7.502999999999994,18,57,42,2,76,48,12.87099999999999,24.76599999999998,4.391999999999997,2.1959999999999984,20,19,17,12,106,215,36,16,5,0,19,4.75,6,Lc,0.12142452830188678,0.11519069767441859,0.122,0.13724999999999998,0.5,20,15,30,1,9
1,11,22,1,7,11.406999999999991,20,104,18,14,22,26,16.652999999999988,4.879999999999996,2.744999999999998,1.524999999999999,20,17,13,8,149,37,21,10,6,0.5,41,5.75,6,Lc,0.11176510067114094,0.13189189189189188,0.1307142857142857,0.1525,0.5,20,15,30,1,9
1,12,23,1,10,7.746999999999994,18,60,86,87,28,85,11.406999999999991,4.879999999999996,0.6709999999999998,1.8299999999999987,20,16,6,14,87,42,6,18,3,0.5,23,3.5,6,Lc,0.13111494252873562,0.11619047619047619,0.11183333333333333,0.10166666666666667,0.5,20,15,30,1,9
1,12,24,1,1,8.844999999999994,19,79,75,73,40,19,13.84699999999999,12.87099999999999,1.4029999999999991,10.369999999999992,20,19,10,17,117,110,12,85,3,0,17,4.25,6,Lc,0.11835042735042733,0.11700909090909091,0.11691666666666667,0.122,0.5,20,15,30,1,9
1,13,25,1,2,8.417999999999994,17,69,57,50,56,74,8.478999999999994,7.990999999999993,1.585999999999999,4.635999999999997,18,19,11,16,70,73,15,43,4,0.5,27,3.75,6,Lc,0.12112857142857143,0.10946575342465753,0.10573333333333333,0.1078139534883721,0.5,20,15,30,1,9
1,13,26,1,9,9.271999999999993,18,90,72,5,7,46,10.491999999999992,13.41999999999999,13.23699999999999,1.463999999999999,20,19,18,8,100,122,102,12,4,0,21,5.25,6,Lc,0.10492,0.10999999999999999,0.12977450980392155,0.122,0.5,20,15,30,1,9
1,14,27,1,2,4.7579999999999965,16,42,58,60,95,86,22.935999999999982,1.0979999999999994,15.737999999999987,4.025999999999997,20,8,18,15,193,10,133,34,4,0,14,3.5,6,Lc,0.11883937823834197,0.1098,0.11833082706766918,0.11841176470588236,0.5,20,15,30,1,9
1,14,28,1,4,9.027999999999993,20,75,106,102,98,65,15.18899999999999,1.585999999999999,2.2569999999999983,3.720999999999997,20,10,14,14,122,12,20,26,2,0.5,16,2.5,6,Lc,0.1245,0.13216666666666665,0.11284999999999999,0.14311538461538462,0.5,20,15,30,1,9
1,15,29,1,8,7.990999999999993,19,75,114,112,91,15,9.881999999999993,1.1589999999999994,30.377999999999975,8.966999999999993,20,7,18,17,92,10,229,69,2,0,13,3.25,6,Lc,0.10741304347826086,0.1159,0.13265502183406114,0.12995652173913044,0.5,20,15,30,1,9
1,15,30,1,1,11.284999999999991,20,93,80,82,43,77,12.44399999999999,5.367999999999996,0.9759999999999995,5.245999999999996,20,19,9,17,104,44,10,42,3,0.5,23,3.5,6,Lc,0.11965384615384615,0.122,0.09759999999999999,0.12490476190476191,0.5,20,15,30,1,9
1,16,31,1,7,6.404999999999995,17,54,20,19,23,24,6.465999999999995,0.6099999999999999,10.613999999999992,1.0979999999999994,18,5,18,9,55,6,105,13,6,1,72,6,6,Lc,0.11756363636363636,0.10166666666666666,0.10108571428571428,0.08446153846153846,0.5,20,15,30,1,9
1,16,32,1,3,7.380999999999994,18,68,32,28,35,64,13.785999999999989,4.513999999999997,0.8539999999999996,0.366,20,18,5,2,124,40,5,2,5,0.5,34,4.75,6,Lc,0.1111774193548387,0.11284999999999998,0.17079999999999998,0.183,0.5,20,15,30,1,9
1,17,33,1,2,7.990999999999993,19,63,58,57,32,27,12.26099999999999,1.7079999999999989,24.94899999999998,21.227999999999984,20,11,18,15,92,15,210,177,4,0,18,4.5,6,Lc,0.13327173913043477,0.11386666666666667,0.11880476190476191,0.11993220338983052,0.5,20,15,30,1,9
1,17,34,1,4,6.648999999999995,17,59,97,99,107,39,10.857999999999992,0.6099999999999999,1.8909999999999987,3.3549999999999973,20,5,10,14,88,5,16,30,2,0.5,17,2.75,6,Lc,0.12338636363636364,0.122,0.11818749999999999,0.11183333333333333,0.5,20,15,30,1,9
1,1,1,0,8,11.95599999999999,20,100,119,111,109,23,14.456999999999988,7.136999999999994,0.061,4.6969999999999965,20,18,1,17,119,63,1,37,2,0.5,18,3,6,Lc,0.12148739495798318,0.11328571428571428,0.061,0.12694594594594594,0.5,20,15,30,1,10
1,1,2,0,9,7.746999999999994,20,64,70,65,12,27,12.93199999999999,3.2939999999999974,4.147999999999997,1.0979999999999994,20,16,15,7,112,30,28,9,4,0,19,4.75,6,Lc,0.11546428571428571,0.1098,0.14814285714285713,0.122,0.5,20,15,30,1,10
1,2,3,0,8,10.979999999999992,19,102,113,110,117,111,13.663999999999989,0.122,5.184999999999996,2.622999999999998,20,2,17,12,122,2,40,22,2,1,24,2,6,Lc,0.11199999999999999,0.061,0.129625,0.11922727272727272,0.5,20,15,30,1,10
1,2,4,0,1,11.284999999999991,20,103,81,73,59,82,15.43299999999999,2.0739999999999985,4.452999999999997,0.8539999999999996,20,12,14,6,135,14,33,7,3,0.5,22,3.25,6,Lc,0.11431851851851851,0.14814285714285713,0.13493939393939394,0.122,0.5,20,15,30,1,10
1,3,5,0,2,9.027999999999993,17,69,57,54,52,17,12.62699999999999,2.744999999999998,9.698999999999993,0.366,20,14,17,2,98,24,78,3,4,0.5,30,4.5,6,Lc,0.1288469387755102,0.114375,0.12434615384615384,0.122,0.5,20,15,30,1,10
1,3,6,0,6,5.672999999999996,14,43,1,11,104,3,22.874999999999982,0.122,0.366,0.183,20,1,5,2,181,1,5,2,6,0.5,38,5,6,Lc,0.12638121546961326,0.122,0.0732,0.0915,0.5,20,15,30,1,10
1,4,7,0,5,11.77299999999999,20,110,45,41,42,40,17.140999999999988,6.160999999999995,3.598999999999997,1.9519999999999986,20,18,15,13,154,43,27,17,5,1,60,5,6,Lc,0.1113051948051948,0.14327906976744184,0.1332962962962963,0.11482352941176471,0.5,20,15,30,1,10
1,4,8,0,9,6.648999999999995,17,61,67,69,71,70,16.40899999999999,0.122,0.122,0.061,20,2,1,1,132,2,1,1,4,1,48,4,6,Lc,0.12431060606060605,0.061,0.122,0.061,0.5,20,15,30,1,10
1,5,9,0,3,10.735999999999992,18,88,32,29,28,102,17.140999999999988,2.2569999999999983,6.953999999999994,9.637999999999993,20,11,16,17,141,15,46,77,5,0.5,32,4.25,6,Lc,0.12156737588652483,0.15046666666666667,0.15117391304347824,0.12516883116883118,0.5,20,15,30,1,10
1,5,10,0,5,9.210999999999993,16,78,38,46,42,92,12.26099999999999,0.183,2.561999999999998,24.58299999999998,20,2,11,17,102,2,22,177,5,0.5,33,4.5,6,Lc,0.12020588235294118,0.0915,0.11645454545454545,0.1388870056497175,0.5,20,15,30,1,10
1,6,11,1,3,7.441999999999994,20,74,32,28,27,101,8.112999999999994,8.600999999999994,8.905999999999993,0.6099999999999999,20,18,18,5,78,71,73,5,5,0.5,32,4.25,6,Lc,0.1040128205128205,0.12114084507042253,0.122,0.122,0.5,20,15,30,1,10
1,6,12,1,8,6.8929999999999945,18,64,109,114,24,120,11.650999999999991,1.646999999999999,5.306999999999996,0.061,20,8,17,1,101,10,46,1,2,0.5,18,3,6,Lc,0.11535643564356435,0.16469999999999999,0.1153695652173913,0.061,0.5,20,15,30,1,10
1,7,13,1,2,6.953999999999994,15,62,50,54,49,52,8.905999999999993,3.903999999999997,3.598999999999997,1.7079999999999989,20,16,17,10,77,33,33,13,4,1,48,4,6,Lc,0.11566233766233766,0.1183030303030303,0.10906060606060607,0.13138461538461538,0.5,20,15,30,1,10
1,7,14,1,10,7.563999999999994,19,71,95,90,88,36,9.942999999999993,5.611999999999996,10.064999999999992,2.622999999999998,20,17,18,13,95,49,83,20,3,0.5,23,3.5,6,Lc,0.10466315789473685,0.11453061224489795,0.12126506024096384,0.13115,0.5,20,15,30,1,10
1,8,15,1,10,10.186999999999992,20,91,85,58,99,96,11.162999999999991,31.536999999999974,0.6709999999999998,1.463999999999999,20,19,3,12,101,262,3,19,3,0,12,3,6,Lc,0.11052475247524751,0.12037022900763358,0.22366666666666665,0.07705263157894737,0.5,20,15,30,1,10
1,8,16,1,9,7.258999999999994,16,61,66,70,61,65,8.905999999999993,0.183,4.086999999999997,5.123999999999996,20,2,15,15,72,2,36,38,4,1,48,4,6,Lc,0.12369444444444444,0.0915,0.11352777777777777,0.1348421052631579,0.5,20,15,30,1,10
1,9,17,1,10,7.014999999999994,20,61,86,87,88,118,9.088999999999993,0.244,3.4159999999999973,12.07799999999999,20,3,13,17,74,3,28,99,3,0.5,20,2.75,6,Lc,0.12282432432432433,0.08133333333333333,0.122,0.122,0.5,20,15,30,1,10
1,9,18,1,9,6.526999999999995,18,57,69,71,48,72,6.770999999999995,7.624999999999994,4.147999999999997,1.0979999999999994,20,19,13,3,60,66,27,5,4,0.5,29,4.25,6,Lc,0.11284999999999999,0.11553030303030302,0.15362962962962962,0.2196,0.5,20,15,30,1,10
1,10,19,1,10,7.9299999999999935,19,68,94,95,119,91,8.661999999999994,3.2939999999999974,8.356999999999994,3.1109999999999975,20,16,17,14,72,27,65,27,3,0.5,20,2.75,6,Lc,0.12030555555555555,0.122,0.12856923076923077,0.11522222222222223,0.5,20,15,30,1,10
1,10,20,1,7,5.7339999999999955,20,54,21,20,15,14,9.881999999999993,1.7079999999999989,0.9759999999999995,0.122,20,11,6,2,92,14,6,2,6,1,72,6,6,Lc,0.10741304347826086,0.122,0.16266666666666665,0.061,0.5,20,15,30,1,10
1,11,21,1,7,5.367999999999996,20,55,20,15,21,24,6.160999999999996,12.19999999999999,1.4029999999999991,1.8299999999999987,20,19,10,12,58,114,13,18,6,1,72,6,6,Lc,0.10622413793103448,0.10701754385964912,0.10792307692307691,0.10166666666666667,0.5,20,15,30,1,10
1,11,22,1,6,8.417999999999994,19,84,6,2,1,29,14.39599999999999,7.441999999999994,6.526999999999995,1.2199999999999993,20,18,18,7,137,61,59,8,6,0.5,41,5.75,6,Lc,0.10508029197080292,0.122,0.1106271186440678,0.1525,0.5,20,15,30,1,10
1,12,23,1,8,6.709999999999995,18,64,118,120,112,111,6.770999999999995,3.903999999999997,5.977999999999995,2.1959999999999984,19,14,17,11,65,31,51,18,2,1,24,2,6,Lc,0.10416923076923076,0.12593548387096773,0.1172156862745098,0.12200000000000001,0.5,20,15,30,1,10
1,12,24,1,9,5.672999999999996,18,48,29,1,7,9,64.78199999999995,10.308999999999992,0.061,1.2809999999999993,20,19,1,6,527,78,1,9,4,0.5,41,5.75,6,Lc,0.12292599620493358,0.13216666666666665,0.061,0.14233333333333334,0.5,20,15,30,1,10
1,13,25,1,7,8.478999999999994,17,70,15,13,16,23,10.247999999999992,6.343999999999995,1.2199999999999993,4.513999999999997,20,18,6,17,86,62,11,44,6,1,72,6,6,Lc,0.11916279069767441,0.10232258064516128,0.1109090909090909,0.1025909090909091,0.5,20,15,30,1,10
1,13,26,1,9,8.661999999999994,20,78,68,71,80,27,15.981999999999989,7.8689999999999936,8.478999999999994,7.563999999999994,20,17,17,15,135,61,74,52,4,0,16,4,6,Lc,0.11838518518518519,0.129,0.11458108108108107,0.14546153846153845,0.5,20,15,30,1,10
1,14,27,1,7,7.441999999999994,16,63,22,18,16,23,9.271999999999993,4.635999999999997,0.7319999999999998,0.6099999999999999,20,16,5,5,81,39,5,5,6,1,72,6,6,Lc,0.11446913580246915,0.11887179487179486,0.1464,0.122,0.5,20,15,30,1,10
1,14,28,1,8,8.112999999999994,19,67,110,119,81,120,8.966999999999993,6.587999999999995,0.7929999999999997,4.7579999999999965,20,17,8,16,75,51,10,37,2,0.5,15,2.25,6,Lc,0.11956,0.12917647058823528,0.0793,0.1285945945945946,0.5,20,15,30,1,10
1,15,29,1,7,3.598999999999997,14,30,24,22,18,21,4.635999999999997,0.7929999999999997,6.282999999999995,3.3549999999999973,20,6,17,13,41,7,60,27,6,1,72,6,6,Lc,0.11307317073170732,0.11328571428571428,0.10471666666666665,0.12425925925925925,0.5,20,15,30,1,10
1,15,30,1,2,8.722999999999994,16,76,59,57,55,50,12.26099999999999,1.585999999999999,1.7689999999999988,3.598999999999997,20,10,11,16,103,16,15,34,4,1,48,4,6,Lc,0.1190388349514563,0.09912499999999999,0.11793333333333333,0.10585294117647058,0.5,20,15,30,1,10
1,16,31,1,6,7.136999999999994,16,58,3,2,12,45,11.589999999999991,0.305,2.9889999999999977,2.3179999999999983,20,4,18,9,87,4,28,15,6,0.5,41,5.75,6,Lc,0.13321839080459769,0.07625,0.10675,0.15453333333333333,0.5,20,15,30,1,10
1,16,32,1,7,4.391999999999997,18,42,117,21,16,14,6.099999999999996,4.7579999999999965,0.305,2.439999999999998,20,18,4,13,56,45,5,21,6,0.5,38,5,6,Lc,0.10892857142857142,0.10573333333333333,0.061,0.11619047619047618,0.5,20,15,30,1,10
1,17,33,1,7,5.977999999999995,19,49,16,17,15,18,9.332999999999993,2.8669999999999978,14.090999999999989,1.2809999999999993,20,15,18,8,76,23,113,11,6,1,72,6,6,Lc,0.12280263157894737,0.12465217391304348,0.12469911504424779,0.11645454545454545,0.5,20,15,30,1,10
1,17,34,1,6,4.025999999999997,14,37,3,4,61,118,8.234999999999994,0.244,0.9149999999999996,2.8669999999999978,20,4,5,14,71,4,7,27,6,0,18,4.5,6,Lc,0.11598591549295774,0.061,0.1307142857142857,0.10618518518518519,0.5,20,15,30,1,10
1,18,35,1,7,6.8319999999999945,18,66,20,15,17,66,8.173999999999994,2.9889999999999977,7.014999999999994,2.439999999999998,20,15,18,12,81,26,62,23,6,0.5,40,5.5,6,Lc,0.10091358024691358,0.11496153846153846,0.11314516129032258,0.10608695652173913,0.5,20,15,30,1,10
1,18,36,1,5,7.014999999999994,16,50,47,44,48,117,8.966999999999993,2.8669999999999978,3.842999999999997,4.879999999999996,20,12,15,15,66,19,26,33,5,0.5,32,4.25,6,Lc,0.13586363636363635,0.15089473684210525,0.14780769230769228,0.1478787878787879,0.5,20,15,30,1,10
1,1,1,0,9,8.478999999999994,20,73,65,70,69,62,10.369999999999992,5.916999999999995,1.8299999999999987,3.903999999999997,20,18,13,16,94,45,20,41,4,1,48,4,6,Hc,0.1103191489361702,0.13148888888888888,0.0915,0.09521951219512195,0.5,20,15,30,1,1
1,1,2,0,1,6.465999999999995,17,53,73,75,99,84,20.373999999999985,0.122,2.622999999999998,4.513999999999997,20,2,16,15,171,2,23,28,3,0.5,11,2.75,6,Hc,0.11914619883040935,0.061,0.11404347826086955,0.1612142857142857,0.5,20,15,30,1,1
1,2,3,0,9,10.552999999999992,19,76,30,16,32,62,31.780999999999977,1.7689999999999988,0.427,1.646999999999999,20,10,3,9,254,14,6,12,4,0,20,5,6,Hc,0.12512204724409448,0.12635714285714286,0.07116666666666667,0.13724999999999998,0.5,20,15,30,1,1
1,2,4,0,5,6.526999999999995,17,51,44,48,47,59,8.051999999999994,5.611999999999996,5.7949999999999955,1.2199999999999993,20,18,17,6,64,40,51,8,5,0.5,19,4.75,6,Hc,0.1258125,0.14029999999999998,0.11362745098039216,0.1525,0.5,20,15,30,1,1
1,3,5,0,6,6.709999999999995,17,61,3,8,10,12,27.510999999999978,0.6099999999999999,0.122,0.061,20,6,2,1,233,6,2,1,6,1,72,6,6,Hc,0.11807296137339054,0.10166666666666667,0.061,0.061,0.5,20,15,30,1,1
1,3,6,0,2,9.088999999999993,18,79,54,36,57,53,11.83399999999999,7.197999999999994,3.720999999999997,2.561999999999998,20,19,17,11,95,53,32,19,4,0.5,17,4.25,6,Hc,0.12456842105263158,0.13581132075471697,0.11628125,0.1348421052631579,0.5,20,15,30,1,1
1,4,7,0,5,8.905999999999993,18,83,48,38,106,98,11.040999999999991,0.427,8.722999999999994,5.489999999999996,20,4,18,16,102,4,72,43,5,0,14,3.5,6,Hc,0.10824509803921567,0.10675,0.12115277777777778,0.12767441860465117,0.5,20,15,30,1,1
1,4,8,0,8,7.014999999999994,19,69,115,119,112,116,9.027999999999993,1.2809999999999993,4.635999999999997,1.8909999999999987,20,7,17,11,83,12,44,14,2,1,24,2,6,Hc,0.10877108433734939,0.10675,0.10536363636363635,0.13507142857142856,0.5,20,15,30,1,1
1,5,9,0,7,6.404999999999995,14,46,16,22,18,56,11.89499999999999,0.6709999999999998,3.537999999999997,6.343999999999995,20,5,15,16,87,6,33,47,6,0.5,22,5.5,6,Hc,0.13672413793103447,0.11183333333333334,0.10721212121212122,0.13497872340425532,0.5,20,15,30,1,1
1,5,10,0,6,7.563999999999994,16,61,10,3,9,4,11.223999999999991,2.0739999999999985,0.7319999999999998,4.6969999999999965,20,10,3,15,96,18,3,40,6,1,72,6,6,Hc,0.11691666666666667,0.11522222222222221,0.244,0.11742499999999999,0.5,20,15,30,1,1
1,6,11,1,5,7.014999999999994,15,58,47,45,46,5,7.136999999999994,3.4159999999999973,6.709999999999995,15.127999999999988,17,17,17,17,60,31,62,125,5,0.5,21,5.25,6,Hc,0.11895,0.11019354838709677,0.1082258064516129,0.12102399999999999,0.5,20,15,30,1,1
1,6,12,1,10,8.539999999999994,19,64,19,29,87,52,38.55199999999997,0.122,0.061,0.122,20,1,1,2,310,1,1,2,3,0,18,4.5,6,Hc,0.12436129032258064,0.122,0.061,0.061,0.5,20,15,30,1,1
1,7,13,1,3,6.099999999999995,19,55,2,90,94,26,61.12199999999995,0.061,0.061,0.244,20,1,1,3,521,1,1,3,5,0,17,4.25,6,Hc,0.11731669865642994,0.061,0.061,0.08133333333333333,0.5,20,15,30,1,1
1,7,14,1,5,10.552999999999992,18,89,39,72,42,40,16.530999999999988,2.683999999999998,0.9759999999999995,0.9759999999999995,20,15,6,8,144,24,6,11,5,0.5,19,4.75,6,Hc,0.1147986111111111,0.11183333333333334,0.16266666666666665,0.08872727272727272,0.5,20,15,30,1,1
1,8,15,1,2,8.234999999999994,20,74,60,55,52,50,13.419999999999991,8.234999999999994,2.0739999999999985,1.646999999999999,20,19,13,10,112,65,22,14,4,1,48,4,6,Hc,0.11982142857142858,0.1266923076923077,0.09427272727272726,0.11764285714285715,0.5,20,15,30,1,1
1,8,16,1,3,6.282999999999995,16,47,88,94,98,92,58.13299999999995,0.061,1.4029999999999991,0.061,20,1,8,1,467,1,8,1,5,0.5,11,2.75,6,Hc,0.12448179871520343,0.061,0.175375,0.061,0.5,20,15,30,1,1
1,9,17,1,10,5.7339999999999955,16,46,15,87,92,90,12.62699999999999,0.183,1.2199999999999993,1.1589999999999994,20,3,9,7,98,3,9,10,3,0.5,15,3.75,6,Hc,0.1288469387755102,0.061,0.13555555555555554,0.1159,0.5,20,15,30,1,1
1,9,18,1,9,7.807999999999994,17,72,71,62,67,42,8.356999999999994,4.086999999999997,6.587999999999995,1.7079999999999989,20,17,17,7,77,38,61,13,4,0.5,17,4.25,6,Hc,0.10853246753246754,0.10755263157894737,0.108,0.13138461538461538,0.5,20,15,30,1,1
1,10,19,1,10,11.77299999999999,20,105,91,96,7,86,17.079999999999988,2.0129999999999986,43.858999999999966,0.122,20,10,18,2,144,13,374,2,3,0.5,15,3.75,6,Hc,0.11861111111111111,0.15484615384615386,0.11727005347593583,0.061,0.5,20,15,30,1,1
1,10,20,1,1,5.306999999999996,18,47,73,79,81,74,8.356999999999994,0.6709999999999998,8.295999999999994,2.0739999999999985,20,3,17,12,75,3,67,17,3,1,36,3,6,Hc,0.11142666666666666,0.22366666666666665,0.12382089552238805,0.122,0.5,20,15,30,1,1
1,11,21,1,2,8.661999999999994,15,69,57,55,50,10,11.528999999999991,0.244,10.308999999999992,15.249999999999988,20,3,18,16,96,3,85,111,4,0.5,18,4.5,6,Hc,0.12009375,0.08133333333333333,0.12128235294117647,0.13738738738738737,0.5,20,15,30,1,1
1,11,22,1,1,9.271999999999993,19,85,79,84,13,74,12.01699999999999,6.953999999999994,6.221999999999995,0.488,20,17,17,5,106,54,53,6,3,0.5,15,3.75,6,Hc,0.11336792452830188,0.12877777777777777,0.11739622641509434,0.08133333333333333,0.5,20,15,30,1,1
1,12,23,1,1,4.269999999999997,16,34,80,82,75,70,7.014999999999995,0.061,7.014999999999994,0.427,20,1,16,2,51,1,57,2,3,0.5,13,3.25,6,Hc,0.13754901960784313,0.061,0.12307017543859648,0.2135,0.5,20,15,30,1,1
1,12,24,1,3,5.550999999999996,17,50,4,58,57,33,50.14199999999996,0.366,0.183,0.244,20,5,2,2,403,5,2,2,5,0,19,4.75,6,Hc,0.12442183622828784,0.0732,0.0915,0.122,0.5,20,15,30,1,1
1,13,25,1,1,8.356999999999994,18,67,78,74,62,82,18.116999999999987,1.9519999999999986,0.6709999999999998,2.0739999999999985,20,11,5,11,151,13,7,19,3,0.5,13,3.25,6,Hc,0.11998013245033112,0.15015384615384614,0.09585714285714285,0.1091578947368421,0.5,20,15,30,1,1
1,13,26,1,5,7.9299999999999935,18,74,42,40,41,38,11.162999999999991,2.622999999999998,1.9519999999999986,8.173999999999994,20,14,9,17,104,20,14,67,5,1,60,5,6,Hc,0.10733653846153846,0.13115,0.13942857142857143,0.122,0.5,20,15,30,1,1
1,14,27,1,1,15.188999999999988,19,125,76,75,83,68,17.384999999999987,8.356999999999994,8.539999999999994,0.427,20,19,18,4,144,65,77,4,3,0.5,13,3.25,6,Hc,0.12072916666666667,0.12856923076923077,0.1109090909090909,0.10675,0.5,20,15,30,1,1
1,14,28,1,10,5.367999999999996,14,43,91,87,92,89,6.038999999999996,8.417999999999994,1.7689999999999988,7.319999999999994,20,19,9,17,49,65,13,61,3,1,36,3,6,Hc,0.12324489795918367,0.1295076923076923,0.13607692307692307,0.12,0.5,20,15,30,1,1
1,15,29,1,1,7.746999999999994,18,65,73,83,80,116,9.271999999999993,4.086999999999997,2.0129999999999986,10.491999999999992,20,15,13,17,77,36,18,86,3,0.5,11,2.75,6,Hc,0.1204155844155844,0.11352777777777777,0.11183333333333333,0.122,0.5,20,15,30,1,1
1,15,30,1,7,4.7579999999999965,16,42,16,20,17,18,13.114999999999991,0.7319999999999998,0.427,6.404999999999995,20,6,3,17,109,6,4,58,6,1,72,6,6,Hc,0.1203211009174312,0.122,0.10675,0.11043103448275862,0.5,20,15,30,1,1
1,16,31,1,2,10.308999999999992,19,92,58,50,60,57,17.994999999999987,0.427,0.8539999999999996,3.476999999999997,20,2,7,13,147,2,9,31,4,1,48,4,6,Hc,0.12241496598639455,0.2135,0.09488888888888888,0.11216129032258064,0.5,20,15,30,1,1
1,16,32,1,7,3.842999999999997,12,28,14,17,16,45,7.441999999999994,2.8669999999999978,15.554999999999987,0.5489999999999999,20,12,18,6,55,22,135,7,6,0.5,23,5.75,6,Hc,0.1353090909090909,0.1303181818181818,0.11522222222222223,0.07842857142857143,0.5,20,15,30,1,1
1,17,33,1,6,13.11499999999999,19,108,11,12,6,5,13.968999999999989,8.966999999999993,0.5489999999999999,1.2199999999999993,20,19,4,6,116,74,4,9,6,1,72,6,6,Hc,0.12042241379310345,0.12117567567567566,0.13724999999999998,0.13555555555555554,0.5,20,15,30,1,1
1,17,34,1,7,3.720999999999997,13,34,15,22,13,14,5.062999999999996,0.9149999999999996,1.0979999999999994,12.99299999999999,20,7,5,17,44,8,6,105,6,1,72,6,6,Hc,0.11506818181818182,0.114375,0.183,0.12374285714285714,0.5,20,15,30,1,1
1,1,1,0,5,8.905999999999993,20,76,38,39,42,88,10.735999999999992,6.8929999999999945,0.6099999999999999,2.8669999999999978,20,18,6,16,92,63,7,23,5,0.5,18,4.5,6,Hc,0.11669565217391305,0.1094126984126984,0.08714285714285715,0.12465217391304347,0.5,20,15,30,1,2
1,1,2,0,9,9.027999999999993,19,67,66,67,61,70,11.89499999999999,0.8539999999999996,2.500999999999998,6.709999999999995,20,7,16,17,87,7,26,58,4,1,48,4,6,Hc,0.13672413793103447,0.122,0.09619230769230769,0.1156896551724138,0.5,20,15,30,1,2
1,2,3,0,6,8.844999999999994,20,72,11,8,10,12,10.430999999999992,10.613999999999992,1.8299999999999987,4.940999999999996,20,18,10,17,86,90,13,39,6,1,72,6,6,Hc,0.12129069767441861,0.11793333333333333,0.14076923076923076,0.1266923076923077,0.5,20,15,30,1,2
1,2,4,0,5,6.526999999999995,19,59,43,44,42,101,11.89499999999999,0.7319999999999998,0.488,5.916999999999995,20,4,5,16,116,5,5,48,5,0.5,17,4.25,6,Hc,0.10254310344827586,0.1464,0.09759999999999999,0.12327083333333333,0.5,20,15,30,1,2
1,3,5,0,3,7.8689999999999936,20,76,29,25,11,10,12.99299999999999,7.197999999999994,24.21699999999998,7.746999999999994,20,19,18,17,112,62,186,64,5,0,22,5.5,6,Hc,0.11600892857142857,0.11609677419354839,0.1301989247311828,0.12104687499999998,0.5,20,15,30,1,2
1,3,6,0,9,8.417999999999994,17,66,65,70,62,20,8.783999999999994,11.162999999999991,1.646999999999999,0.305,20,19,9,3,70,108,12,3,4,0.5,18,4.5,6,Hc,0.12548571428571428,0.10336111111111111,0.13724999999999998,0.10166666666666667,0.5,20,15,30,1,2
1,4,7,0,5,6.465999999999995,19,61,41,40,43,48,9.820999999999993,1.1589999999999994,3.1719999999999975,7.441999999999994,20,7,13,17,94,10,25,46,5,1,60,5,6,Hc,0.10447872340425532,0.11589999999999999,0.12688,0.16178260869565217,0.5,20,15,30,1,2
1,4,8,0,9,10.430999999999992,20,91,69,64,70,71,12.74899999999999,4.391999999999997,1.2199999999999993,6.282999999999995,20,17,8,17,108,41,9,54,4,1,48,4,6,Hc,0.11804629629629629,0.1071219512195122,0.13555555555555554,0.11635185185185186,0.5,20,15,30,1,2
1,5,9,0,8,4.6969999999999965,15,43,112,113,120,117,10.918999999999992,2.0129999999999986,20.617999999999984,0.488,20,11,18,4,94,19,170,4,2,1,24,2,6,Hc,0.11615957446808511,0.10594736842105262,0.12128235294117647,0.122,0.5,20,15,30,1,2
1,5,10,0,7,7.807999999999994,14,57,21,14,17,18,8.905999999999993,6.404999999999995,0.244,13.785999999999989,20,17,2,17,68,52,2,125,6,1,72,6,6,Hc,0.13097058823529412,0.12317307692307693,0.122,0.110288,0.5,20,15,30,1,2
1,6,11,1,5,6.160999999999995,19,53,42,48,41,38,8.600999999999994,2.744999999999998,5.672999999999996,1.7689999999999988,20,12,18,10,74,21,48,18,5,1,60,5,6,Hc,0.11622972972972972,0.1307142857142857,0.1181875,0.09827777777777777,0.5,20,15,30,1,2
1,6,12,1,9,6.770999999999995,15,58,69,68,63,72,9.210999999999993,1.2809999999999993,5.184999999999996,15.615999999999987,20,8,17,17,84,12,43,120,4,1,48,4,6,Hc,0.10965476190476191,0.10675,0.12058139534883722,0.13013333333333332,0.5,20,15,30,1,2
1,7,13,1,5,8.112999999999994,17,76,40,48,39,21,13.72499999999999,1.3419999999999992,3.476999999999997,15.859999999999987,20,11,14,17,129,14,22,132,5,0.5,21,5.25,6,Hc,0.1063953488372093,0.09585714285714285,0.15804545454545454,0.12015151515151513,0.5,20,15,30,1,2
1,7,14,1,6,5.550999999999996,17,53,3,10,5,11,6.7099999999999955,3.598999999999997,3.0499999999999976,1.7079999999999989,20,16,12,10,66,25,23,14,6,1,72,6,6,Hc,0.10166666666666667,0.14396,0.1326086956521739,0.122,0.5,20,15,30,1,2
1,8,15,1,5,5.123999999999996,13,47,47,37,38,43,5.794999999999996,2.2569999999999983,5.489999999999996,3.1719999999999975,17,13,18,11,52,20,50,24,5,1,60,5,6,Hc,0.11144230769230769,0.11285,0.1098,0.13216666666666665,0.5,20,15,30,1,2
1,8,16,1,6,7.807999999999994,17,65,7,11,1,5,10.918999999999992,1.0979999999999994,3.0499999999999976,1.8909999999999987,20,8,15,10,95,11,29,15,6,1,72,6,6,Hc,0.11493684210526316,0.09981818181818182,0.10517241379310345,0.12606666666666666,0.5,20,15,30,1,2
1,9,17,1,10,8.722999999999994,16,73,92,90,94,91,9.820999999999993,4.818999999999996,1.9519999999999986,5.367999999999996,20,15,10,16,82,37,18,38,3,1,36,3,6,Hc,0.11976829268292682,0.13024324324324324,0.10844444444444444,0.14126315789473684,0.5,20,15,30,1,2
1,9,18,1,4,5.855999999999995,18,54,107,108,99,101,18.238999999999987,1.463999999999999,1.0979999999999994,1.9519999999999986,20,9,9,13,151,11,10,20,2,1,24,2,6,Hc,0.12078807947019866,0.1330909090909091,0.1098,0.09759999999999999,0.5,20,15,30,1,2
1,10,19,1,6,3.598999999999997,12,32,2,5,6,9,10.369999999999992,0.061,1.0369999999999995,10.125999999999992,20,1,9,17,101,1,9,82,6,1,72,6,6,Hc,0.10267326732673268,0.061,0.11522222222222223,0.12348780487804878,0.5,20,15,30,1,2
1,10,20,1,1,10.735999999999992,18,96,73,31,84,30,14.94499999999999,6.8319999999999945,0.366,0.488,20,18,4,2,129,55,4,2,3,0,16,4,6,Hc,0.11585271317829457,0.12421818181818181,0.0915,0.244,0.5,20,15,30,1,2
1,11,21,1,9,7.014999999999994,18,64,72,65,62,19,9.637999999999993,9.637999999999993,3.598999999999997,2.9279999999999977,20,18,12,13,89,81,30,18,4,0.5,18,4.5,6,Hc,0.10829213483146068,0.11898765432098767,0.11996666666666667,0.16266666666666665,0.5,20,15,30,1,2
1,11,22,1,6,5.489999999999996,16,48,9,6,3,84,7.075999999999995,7.502999999999994,4.269999999999997,2.744999999999998,20,18,16,12,61,70,35,25,6,0.5,21,5.25,6,Hc,0.11599999999999999,0.10718571428571429,0.122,0.1098,0.5,20,15,30,1,2
1,12,23,1,2,15.066999999999988,17,130,57,59,53,50,19.702999999999985,5.062999999999996,0.122,1.8299999999999987,20,16,2,12,166,36,2,20,4,1,48,4,6,Hc,0.11869277108433735,0.1406388888888889,0.061,0.0915,0.5,20,15,30,1,2
1,12,24,1,5,5.428999999999996,18,49,48,40,43,47,6.282999999999996,7.9299999999999935,1.646999999999999,1.3419999999999992,20,19,11,12,58,66,17,14,5,1,60,5,6,Hc,0.10832758620689655,0.12015151515151515,0.096882352941176475,0.09585714285714285,0.5,20,15,30,1,2
1,13,25,1,3,2.805999999999998,11,22,31,30,29,32,4.6969999999999965,0.7319999999999998,2.3789999999999982,10.125999999999992,20,8,13,17,38,9,17,88,5,1,60,5,6,Hc,0.12360526315789473,0.08133333333333333,0.13994117647058824,0.11506818181818182,0.5,20,15,30,1,2
1,13,26,1,10,8.356999999999994,17,72,86,93,95,91,9.637999999999993,0.244,1.2809999999999993,8.173999999999994,20,2,9,16,80,2,12,74,3,1,36,3,6,Hc,0.12047499999999998,0.122,0.10675,0.11045945945945945,0.5,20,15,30,1,2
1,14,27,1,7,8.783999999999994,19,72,22,17,20,18,12.01699999999999,11.284999999999991,0.061,1.9519999999999986,20,19,1,11,101,92,1,16,6,1,72,6,6,Hc,0.11898019801980197,0.12266304347826086,0.061,0.12199999999999998,0.5,20,15,30,1,2
1,14,28,1,3,7.014999999999994,19,63,33,32,27,35,9.149999999999993,0.122,8.417999999999994,19.824999999999985,20,2,18,17,76,2,73,166,5,1,60,5,6,Hc,0.12039473684210526,0.061,0.11531506849315068,0.1194277108433735,0.5,20,15,30,1,2
1,15,29,1,2,8.661999999999994,18,81,57,59,52,60,9.698999999999993,3.659999999999997,15.249999999999988,1.4029999999999991,20,16,18,13,86,40,133,14,4,1,48,4,6,Hc,0.11277906976744187,0.0915,0.11466165413533835,0.10021428571428571,0.5,20,15,30,1,2
1,15,30,1,7,5.855999999999995,18,56,14,21,18,16,6.892999999999995,1.7689999999999988,10.491999999999992,10.918999999999992,20,10,18,17,64,16,95,91,6,1,72,6,6,Hc,0.10770312499999998,0.1105625,0.1104421052631579,0.11998901098901098,0.5,20,15,30,1,2
1,16,31,1,9,6.343999999999995,20,60,68,72,61,71,7.502999999999995,3.659999999999997,8.966999999999993,0.6709999999999998,20,16,18,5,69,36,77,5,4,1,48,4,6,Hc,0.1087391304347826,0.10166666666666667,0.11645454545454545,0.13419999999999999,0.5,20,15,30,1,2
1,16,32,1,3,3.3549999999999973,11,30,29,28,31,34,5.123999999999996,0.6099999999999999,2.0129999999999986,2.9279999999999977,20,5,9,15,52,6,14,31,5,1,60,5,6,Hc,0.09853846153846155,0.10166666666666667,0.1437857142857143,0.0944516129032258,0.5,20,15,30,1,2
1,17,33,1,7,3.659999999999997,15,33,21,24,19,20,6.770999999999995,1.8299999999999987,3.720999999999997,0.122,20,8,15,2,53,13,33,2,6,1,72,6,6,Hc,0.12775471698113208,0.14076923076923076,0.11275757575757575,0.061,0.5,20,15,30,1,2
1,17,34,1,5,5.977999999999995,16,53,37,43,44,67,11.406999999999991,0.6709999999999998,0.122,21.227999999999984,20,3,2,17,93,3,2,169,5,0.5,19,4.75,6,Hc,0.12265591397849461,0.22366666666666665,0.061,0.1256094674556213,0.5,20,15,30,1,2
1,18,35,1,10,7.380999999999994,17,71,86,87,91,90,8.295999999999994,2.622999999999998,10.491999999999992,1.4029999999999991,20,12,18,7,81,21,90,9,3,1,36,3,6,Hc,0.10241975308641975,0.12490476190476191,0.11657777777777777,0.15588888888888888,0.5,20,15,30,1,2
1,18,36,1,6,8.905999999999993,18,72,7,6,5,11,13.541999999999991,2.805999999999998,3.659999999999997,0.5489999999999999,20,14,15,5,111,27,28,6,6,1,72,6,6,Hc,0.122,0.10392592592592592,0.1307142857142857,0.0915,0.5,20,15,30,1,2
1,1,1,0,5,6.404999999999995,18,57,37,41,89,39,14.57899999999999,0.6709999999999998,2.1349999999999985,0.7319999999999998,20,6,14,6,126,7,22,7,5,0.5,18,4.5,6,Hc,0.1157063492063492,0.09585714285714285,0.09704545454545455,0.10457142857142857,0.5,20,15,30,1,3
1,1,2,0,7,15.188999999999988,20,134,103,59,100,101,22.386999999999983,8.417999999999994,0.6099999999999999,2.0129999999999986,20,18,5,11,198,69,5,15,6,0.5,10,2.5,6,Hc,0.11306565656565655,0.122,0.122,0.13419999999999999,0.5,20,15,30,1,3
