Subject,Round,Phase,afterbreak,Schema,Schema_RT,Schema_OB,Schema_AS,Cho_1,Cho_2,Cho_3,Cho_4,RT_1,RT_2,RT_3,RT_4,OB_1,OB_2,OB_3,OB_4,AS_1,AS_2,AS_3,AS_4,schema_payoff,AC,performance,payoff,breakR,type,dwellmean_1,dwellmean_2,dwellmean_3,dwellmean_4,param_w,param_Phi,param_thres_item_final,param_thres_schema,param_theta_shift,rep
1,1,1,0,8,4.7579999999999965,12,21,115,111,92,36,8.905999999999993,3.842999999999997,4.269999999999997,1.8299999999999987,20,13,12,5,40,14,19,6,2,0,12,3,6,Lc,0.22265,0.27449999999999997,0.22473684210526315,0.305,0.5,20,15,10,3,1
1,1,2,0,2,4.452999999999997,13,17,59,75,53,50,12.13899999999999,5.611999999999996,0.8539999999999996,5.001999999999996,20,17,3,11,50,27,3,18,4,0.5,27,3.75,6,Lc,0.24277999999999997,0.20785185185185184,0.2846666666666667,0.27788888888888885,0.5,20,15,10,3,1
1,2,3,0,2,2.622999999999998,9,11,15,26,29,56,18.543999999999986,1.9519999999999986,0.305,1.4029999999999991,20,7,2,4,78,7,2,6,4,0,20,5,6,Lc,0.23774358974358972,0.2788571428571428,0.1525,0.23383333333333334,0.5,20,15,10,3,1
1,2,4,0,6,2.0739999999999985,11,14,104,1,105,11,10.186999999999992,2.8669999999999978,2.3789999999999982,3.1719999999999975,20,9,7,9,58,10,11,12,6,0,16,4,6,Lc,0.17563793103448275,0.28669999999999995,0.21627272727272723,0.2643333333333333,0.5,20,15,10,3,1
1,3,5,0,9,2.3179999999999983,10,11,61,6,67,111,5.001999999999996,11.284999999999991,8.051999999999994,2.1959999999999984,18,17,16,11,23,46,37,13,4,0,16,4,6,Lc,0.2174782608695652,0.24532608695652172,0.2176216216216216,0.16892307692307693,0.5,20,15,10,3,1
1,3,6,0,5,4.391999999999997,12,19,46,42,52,102,11.89499999999999,1.2199999999999993,1.3419999999999992,2.439999999999998,20,3,4,8,44,3,5,10,5,0,16,4,6,Lc,0.2703409090909091,0.4066666666666665,0.26839999999999997,0.244,0.5,20,15,10,3,1
1,4,7,0,5,1.585999999999999,6,7,107,103,40,42,10.918999999999992,1.1589999999999994,0.122,0.7929999999999997,20,3,2,2,46,3,2,2,5,0,14,3.5,6,Lc,0.2373695652173913,0.3863333333333333,0.061,0.39649999999999996,0.5,20,15,10,3,1
1,4,8,0,8,2.9279999999999977,13,19,7,118,116,119,10.430999999999992,5.184999999999996,8.173999999999994,0.9759999999999995,20,12,16,5,45,21,30,6,2,0.5,18,3,6,Lc,0.23179999999999998,0.24690476190476188,0.27246666666666663,0.16266666666666665,0.5,20,15,10,3,1
1,5,9,0,10,1.646999999999999,6,8,91,93,108,102,7.8079999999999945,2.1959999999999984,6.221999999999995,2.1959999999999984,19,7,15,6,32,9,33,7,3,0,10,2.5,6,Lc,0.244,0.244,0.18854545454545452,0.31371428571428567,0.5,20,15,10,3,1
1,5,10,0,8,1.1589999999999994,5,6,115,111,109,119,9.942999999999993,4.025999999999997,2.1959999999999984,4.513999999999997,20,14,10,12,49,16,11,22,2,1,24,2,6,Lc,0.20291836734693877,0.251625,0.19963636363636364,0.2051818181818182,0.5,20,15,10,3,1
1,6,11,1,1,1.4029999999999991,6,7,77,81,76,101,2.5009999999999986,3.598999999999997,7.685999999999994,3.2939999999999974,10,13,14,10,13,20,28,13,3,0.5,20,2.75,6,Lc,0.19238461538461538,0.17995,0.27449999999999997,0.2533846153846154,0.5,20,15,10,3,1
1,6,12,1,9,0.9759999999999995,4,4,72,65,61,69,4.574999999999997,2.9889999999999977,7.075999999999994,2.622999999999998,12,11,15,8,15,15,37,12,4,1,48,4,6,Lc,0.305,0.19926666666666665,0.19124324324324324,0.21858333333333332,0.5,20,15,10,3,1
1,7,13,1,3,2.561999999999998,11,19,29,27,112,119,11.71199999999999,4.818999999999996,4.391999999999997,4.452999999999997,20,15,14,13,59,26,26,25,5,0,14,3.5,6,Lc,0.19850847457627116,0.18534615384615383,0.16892307692307693,0.17812,0.5,20,15,10,3,1
1,7,14,1,9,2.439999999999998,7,10,72,61,4,8,11.284999999999991,7.197999999999994,0.183,0.7319999999999998,20,17,1,3,49,26,1,3,4,0,20,5,6,Lc,0.23030612244897958,0.2768461538461538,0.183,0.24399999999999997,0.5,20,15,10,3,1
1,8,15,1,5,1.7689999999999988,9,12,37,62,46,40,10.003999999999992,1.7689999999999988,1.463999999999999,5.245999999999996,20,5,9,14,46,6,10,21,5,0.5,34,4.75,6,Lc,0.2174782608695652,0.2948333333333333,0.1464,0.2498095238095238,0.5,20,15,10,3,1
1,8,16,1,10,1.7079999999999989,4,5,58,92,96,98,5.672999999999996,0.305,5.977999999999995,2.1959999999999984,19,3,14,8,25,3,23,8,3,0,12,3,6,Lc,0.22691999999999996,0.10166666666666667,0.25991304347826083,0.27449999999999997,0.5,20,15,10,3,1
1,9,17,1,8,1.8909999999999987,8,9,117,109,112,3,9.454999999999993,0.8539999999999996,5.184999999999996,2.561999999999998,20,3,14,9,53,4,27,11,2,0.5,18,3,6,Lc,0.17839622641509434,0.2135,0.19203703703703703,0.2329090909090909,0.5,20,15,10,3,1
1,9,18,1,7,1.0979999999999994,3,4,23,15,102,17,4.147999999999997,4.269999999999997,0.5489999999999999,1.7689999999999988,13,8,1,9,21,13,1,10,6,0.5,38,5,6,Lc,0.19752380952380952,0.3284615384615384,0.5489999999999999,0.1769,0.5,20,15,10,3,1
1,10,19,1,3,1.9519999999999986,7,9,14,99,61,73,280.66100000001416,0.061,0.061,0.244,20,1,1,1,1155,1,1,1,5,0,15,3.75,6,Lc,0.2429965367965368,0.061,0.061,0.244,0.5,20,15,10,3,1
1,10,20,1,5,0.8539999999999996,4,4,60,42,55,40,4.879999999999997,2.9279999999999977,1.0979999999999994,0.6099999999999999,13,7,2,3,21,12,2,4,5,0,18,4.5,6,Lc,0.23238095238095235,0.24399999999999997,0.5489999999999998,0.1525,0.5,20,15,10,3,1
1,11,21,1,3,0.6099999999999999,5,5,32,27,54,50,1.8299999999999992,6.343999999999995,3.598999999999997,0.244,10,15,12,2,10,27,16,2,5,0,18,4.5,6,Lc,0.183,0.23496296296296296,0.22493749999999998,0.122,0.5,20,15,10,3,1
1,11,22,1,7,2.1959999999999984,9,12,21,14,102,20,4.391999999999997,10.796999999999992,3.2329999999999974,1.7079999999999989,13,19,10,7,18,45,12,8,6,0.5,38,5,6,Lc,0.24399999999999997,0.23993333333333333,0.26941666666666664,0.2135,0.5,20,15,10,3,1
1,12,23,1,4,2.0739999999999985,8,12,108,65,105,98,12.32199999999999,9.576999999999993,1.8299999999999987,2.744999999999998,20,19,8,8,57,41,12,9,2,0.5,16,2.5,6,Lc,0.21617543859649122,0.23358536585365852,0.1525,0.305,0.5,20,15,10,3,1
1,12,24,1,8,1.463999999999999,5,6,120,50,112,17,4.330999999999997,5.001999999999996,3.9649999999999967,0.488,13,13,10,4,17,21,20,4,2,0,14,3.5,6,Lc,0.25476470588235295,0.23819047619047612,0.19824999999999998,0.122,0.5,20,15,10,3,1
1,13,25,1,10,1.8299999999999987,6,9,88,87,86,94,5.001999999999996,2.0739999999999985,2.8669999999999978,6.465999999999995,13,7,9,14,18,9,11,40,3,1,36,3,6,Lc,0.27788888888888885,0.23044444444444445,0.2606363636363636,0.16165,0.5,20,15,10,3,1
1,13,26,1,3,1.2809999999999993,7,8,26,19,34,18,2.927999999999998,6.404999999999995,0.366,0.5489999999999999,12,13,2,3,13,29,2,3,5,0,22,5.5,6,Lc,0.2252307692307692,0.22086206896551724,0.183,0.183,0.5,20,15,10,3,1
1,14,27,1,8,0.9759999999999995,5,5,110,53,109,120,1.7689999999999992,5.977999999999995,1.524999999999999,7.319999999999994,6,13,6,16,6,21,7,37,2,0.5,16,2.5,6,Lc,0.2948333333333333,0.2846666666666666,0.21785714285714286,0.19783783783783784,0.5,20,15,10,3,1
1,14,28,1,9,1.8909999999999987,4,5,72,68,23,17,8.234999999999994,0.305,0.5489999999999999,2.1959999999999984,20,1,3,8,38,1,3,10,4,0,20,5,6,Lc,0.21671052631578946,0.305,0.183,0.21959999999999993,0.5,20,15,10,3,1
1,15,29,1,2,3.1109999999999975,12,18,53,115,12,60,13.23699999999999,9.088999999999993,6.953999999999994,0.061,20,15,17,1,68,38,28,1,4,0,16,4,6,Lc,0.19466176470588234,0.23918421052631578,0.24835714285714283,0.061,0.5,20,15,10,3,1
1,15,30,1,3,1.646999999999999,6,8,27,34,30,32,4.513999999999997,8.112999999999994,0.427,5.184999999999996,19,19,3,12,22,41,3,21,5,1,60,5,6,Lc,0.2051818181818182,0.1978780487804878,0.14233333333333334,0.24690476190476188,0.5,20,15,10,3,1
1,16,31,1,2,5.245999999999996,14,21,51,32,28,117,14.39599999999999,1.7689999999999988,18.055999999999987,0.061,20,3,18,1,60,4,76,1,4,0,16,4,6,Lc,0.2399333333333333,0.4422499999999999,0.23757894736842103,0.061,0.5,20,15,10,3,1
1,16,32,1,10,2.3789999999999982,7,11,89,88,87,3,7.502999999999995,1.1589999999999994,4.574999999999997,6.160999999999995,20,5,15,16,36,5,24,35,3,0.5,24,3.75,6,Lc,0.20841666666666667,0.2318,0.190625,0.17602857142857142,0.5,20,15,10,3,1
1,17,33,1,7,1.2809999999999993,5,6,24,36,85,33,6.099999999999996,5.7949999999999955,1.0369999999999995,1.463999999999999,16,15,2,4,20,25,4,5,6,0,19,4.75,6,Lc,0.30499999999999994,0.23179999999999998,0.25925,0.2928,0.5,20,15,10,3,1
1,17,34,1,8,3.0499999999999976,11,16,110,82,113,37,11.89499999999999,5.489999999999996,2.9889999999999977,5.184999999999996,20,9,11,13,58,14,14,21,2,0,12,3,6,Lc,0.20508620689655171,0.392142857142857,0.2135,0.24690476190476188,0.5,20,15,10,3,1
1,1,1,0,10,5.428999999999996,14,26,98,57,87,88,15.676999999999989,2.500999999999998,4.269999999999997,0.488,20,9,12,3,66,10,19,3,3,0,12,3,6,Lc,0.237530303030303,0.2501,0.22473684210526315,0.16266666666666665,0.5,20,15,10,3,2
1,1,2,0,3,1.524999999999999,6,6,26,5,34,73,8.051999999999994,5.062999999999996,7.319999999999994,4.147999999999997,20,16,18,14,34,27,34,19,5,0,19,4.75,6,Lc,0.23682352941176468,0.1875185185185185,0.2152941176470588,0.2183157894736842,0.5,20,15,10,3,2
1,2,3,0,3,2.1959999999999984,6,8,23,99,26,21,11.89499999999999,5.7339999999999955,0.488,4.208999999999997,20,15,3,12,46,25,3,20,5,0,19,4.75,6,Lc,0.25858695652173913,0.22935999999999998,0.16266666666666665,0.21044999999999997,0.5,20,15,10,3,2
1,2,4,0,5,1.3419999999999992,5,6,38,89,42,11,11.589999999999991,2.9279999999999977,2.561999999999998,0.8539999999999996,20,7,9,3,51,9,14,3,5,0,19,4.75,6,Lc,0.2272549019607843,0.32533333333333325,0.183,0.2846666666666666,0.5,20,15,10,3,2
1,3,5,0,4,3.842999999999997,10,15,107,26,102,22,11.040999999999991,1.585999999999999,1.463999999999999,0.9759999999999995,20,5,7,3,44,6,9,3,2,0,15,3.75,6,Lc,0.25093181818181814,0.26433333333333325,0.16266666666666665,0.3253333333333333,0.5,20,15,10,3,2
1,3,6,0,8,1.3419999999999992,5,6,7,117,112,110,9.759999999999993,1.1589999999999994,4.879999999999996,4.025999999999997,20,5,14,14,45,6,23,23,2,0.5,18,3,6,Lc,0.21688888888888888,0.19316666666666665,0.21217391304347824,0.17504347826086955,0.5,20,15,10,3,2
1,4,7,0,5,1.2809999999999993,3,3,88,48,1,46,9.759999999999993,0.366,2.0739999999999985,1.7689999999999988,20,1,7,6,40,1,8,7,5,0,19,4.75,6,Lc,0.24399999999999997,0.366,0.25925,0.2527142857142857,0.5,20,15,10,3,2
1,4,8,0,7,3.781999999999997,11,19,15,31,36,54,15.371999999999987,3.659999999999997,0.244,1.7079999999999989,20,9,2,4,70,11,2,4,6,0,20,5,6,Lc,0.2196,0.3327272727272727,0.122,0.4269999999999999,0.5,20,15,10,3,2
1,5,9,0,8,3.659999999999997,10,14,18,117,17,28,13.05399999999999,0.5489999999999999,2.1349999999999985,3.4159999999999973,20,3,7,12,58,3,8,18,2,0,19,4.75,6,Lc,0.22506896551724137,0.183,0.266875,0.18977777777777777,0.5,20,15,10,3,2
1,5,10,0,1,1.585999999999999,6,7,78,107,103,81,8.051999999999994,4.269999999999997,3.537999999999997,1.1589999999999994,19,12,10,4,31,17,13,5,3,0,10,2.5,6,Lc,0.2597419354838709,0.2511764705882353,0.27215384615384614,0.2318,0.5,20,15,10,3,2
1,6,11,1,7,1.463999999999999,7,8,23,18,31,14,8.600999999999994,2.500999999999998,3.3549999999999973,8.722999999999994,20,7,9,15,36,8,14,43,6,0.5,41,5.75,6,Lc,0.23891666666666664,0.312625,0.2396428571428571,0.20286046511627906,0.5,20,15,10,3,2
1,6,12,1,5,3.720999999999997,11,23,58,11,1,37,12.87099999999999,0.061,2.2569999999999983,0.183,20,1,6,1,62,1,7,1,5,0,21,5.25,6,Lc,0.20759677419354838,0.061,0.32242857142857134,0.183,0.5,20,15,10,3,2
1,7,13,1,3,0.427,2,2,27,35,92,98,8.661999999999994,2.2569999999999983,5.123999999999996,1.8299999999999987,20,8,14,5,34,11,21,5,5,0,15,3.75,6,Lc,0.2547647058823529,0.2051818181818182,0.244,0.36599999999999994,0.5,20,15,10,3,2
1,7,14,1,8,2.805999999999998,9,14,118,115,58,50,5.001999999999996,4.879999999999996,0.244,1.524999999999999,16,15,1,3,24,26,1,3,2,0,12,3,6,Lc,0.20841666666666667,0.18769230769230769,0.244,0.5083333333333333,0.5,20,15,10,3,2
1,8,15,1,9,0.9759999999999995,4,5,62,68,108,70,7.746999999999995,3.1719999999999975,3.659999999999997,1.8909999999999987,20,10,10,8,36,13,17,8,4,0.5,26,3.5,6,Lc,0.21519444444444444,0.24399999999999997,0.21529411764705883,0.23637499999999997,0.5,20,15,10,3,2
1,8,16,1,5,2.3789999999999982,6,8,13,114,112,51,73.62700000000079,0.061,0.061,0.061,20,1,1,1,325,1,1,1,5,0,14,3.5,6,Lc,0.22654461538461537,0.061,0.061,0.061,0.5,20,15,10,3,2
1,9,17,1,1,1.8909999999999987,10,11,84,57,80,53,6.587999999999996,3.1719999999999975,1.585999999999999,4.452999999999997,20,7,8,10,29,8,8,18,3,0,14,3.5,6,Lc,0.22717241379310343,0.39649999999999996,0.19824999999999998,0.24738888888888888,0.5,20,15,10,3,2
1,9,18,1,10,3.0499999999999976,9,16,89,90,101,86,6.160999999999995,7.685999999999994,3.0499999999999976,3.2939999999999974,18,18,15,11,28,42,20,16,3,0.5,20,2.75,6,Lc,0.22003571428571425,0.183,0.1525,0.205875,0.5,20,15,10,3,2
1,10,19,1,6,4.818999999999996,13,26,43,10,11,8,12.01699999999999,0.488,6.465999999999995,0.6709999999999998,20,1,15,3,75,1,34,3,6,0.5,41,5.75,6,Lc,0.16022666666666666,0.488,0.19017647058823528,0.22366666666666665,0.5,20,15,10,3,2
1,10,20,1,10,0.9149999999999996,2,2,13,116,49,27,86.55900000000246,0.244,0.061,0.122,20,2,1,2,339,2,1,2,3,0,17,4.25,6,Lc,0.2553362831858407,0.122,0.061,0.061,0.5,20,15,10,3,2
1,11,21,1,10,4.147999999999997,12,22,103,93,105,15,8.905999999999993,5.7339999999999955,4.6969999999999965,3.4159999999999973,20,14,16,9,35,19,24,13,3,0,13,3.25,6,Lc,0.2544571428571428,0.3017894736842105,0.19570833333333332,0.26276923076923075,0.5,20,15,10,3,2
1,11,22,1,8,2.0129999999999986,9,9,115,75,59,48,3.5379999999999976,8.234999999999994,0.366,0.244,14,16,2,2,17,39,2,2,2,0,14,3.5,6,Lc,0.20811764705882352,0.21115384615384614,0.183,0.122,0.5,20,15,10,3,2
1,12,23,1,9,1.1589999999999994,4,5,103,104,78,62,5.062999999999996,6.343999999999995,1.0369999999999995,0.305,16,14,2,3,24,23,3,3,4,0,11,2.75,6,Lc,0.21095833333333333,0.27582608695652167,0.3456666666666666,0.10166666666666667,0.5,20,15,10,3,2
1,12,24,1,10,3.598999999999997,12,21,95,115,110,118,9.149999999999993,9.942999999999993,0.5489999999999999,3.2329999999999974,20,16,3,12,48,38,3,19,3,0.5,15,2.25,6,Lc,0.190625,0.2616578947368421,0.183,0.1701578947368421,0.5,20,15,10,3,2
1,13,25,1,10,1.7079999999999989,6,6,3,67,61,85,65.33099999999995,0.061,0.061,0.244,20,1,1,2,260,1,1,2,3,0,17,4.25,6,Lc,0.2512730769230769,0.061,0.061,0.122,0.5,20,15,10,3,2
1,13,26,1,1,2.0739999999999985,7,8,14,77,98,106,135.603000000008,0.061,0.122,0.061,20,1,2,1,551,1,2,1,3,0,13,3.25,6,Lc,0.24610344827586203,0.061,0.061,0.061,0.5,20,15,10,3,2
1,14,27,1,3,4.574999999999997,15,26,25,71,33,83,6.587999999999996,5.611999999999996,0.5489999999999999,1.2199999999999993,20,13,3,3,34,23,3,3,5,0,17,4.25,6,Lc,0.19376470588235292,0.24399999999999997,0.183,0.4066666666666666,0.5,20,15,10,3,2
1,14,28,1,5,2.1959999999999984,9,10,39,15,14,48,5.062999999999996,7.990999999999993,1.0979999999999994,2.439999999999998,16,14,2,10,17,34,3,12,5,0,22,5.5,6,Lc,0.29782352941176465,0.23502941176470588,0.36599999999999994,0.2033333333333333,0.5,20,15,10,3,2
1,15,29,1,2,0.7319999999999998,3,5,17,19,18,77,35.562999999999974,0.061,0.061,0.244,20,1,1,2,141,1,1,2,4,0.5,39,5.25,6,Lc,0.2522198581560283,0.061,0.061,0.122,0.5,20,15,10,3,2
1,15,30,1,9,1.9519999999999986,6,11,106,68,31,98,9.393999999999993,2.3789999999999982,4.940999999999996,1.0369999999999995,20,10,13,3,42,13,18,4,4,0,13,3.25,6,Lc,0.22366666666666665,0.183,0.27449999999999997,0.25925,0.5,20,15,10,3,2
1,16,31,1,8,1.4029999999999991,9,12,119,117,80,110,11.467999999999991,1.585999999999999,2.1959999999999984,0.244,20,9,6,2,60,13,9,2,2,0.5,15,2.25,6,Lc,0.19113333333333332,0.122,0.24399999999999997,0.122,0.5,20,15,10,3,2
1,16,32,1,6,2.2569999999999983,5,7,30,8,5,34,3.8429999999999973,2.3789999999999982,7.9299999999999935,0.122,8,9,17,1,12,12,41,1,6,0,22,5.5,6,Lc,0.32025,0.19824999999999998,0.19341463414634144,0.122,0.5,20,15,10,3,2
1,17,33,1,10,2.1349999999999985,12,13,96,86,67,62,6.404999999999996,3.3549999999999973,0.5489999999999999,1.7689999999999988,20,11,1,7,31,14,1,9,3,0,14,3.5,6,Lc,0.20661290322580644,0.23964285714285713,0.5489999999999999,0.1965555555555555,0.5,20,15,10,3,2
1,17,34,1,6,1.7689999999999988,7,9,3,82,120,10,4.7579999999999965,4.452999999999997,1.0369999999999995,2.805999999999998,16,13,4,7,23,22,4,8,6,0,17,4.25,6,Lc,0.2068695652173913,0.2024090909090909,0.25925,0.35074999999999995,0.5,20,15,10,3,2
1,1,1,0,6,2.9279999999999977,12,18,9,6,85,68,11.77299999999999,2.0129999999999986,5.855999999999995,3.476999999999997,20,4,14,11,55,7,25,16,6,0,19,4.75,7,Lc,0.21405454545454544,0.2875714285714286,0.23423999999999998,0.2173125,0.5,20,15,10,3,3
1,1,2,0,2,3.9649999999999967,13,14,73,35,56,82,11.162999999999991,3.781999999999997,2.3789999999999982,1.7079999999999989,20,7,7,8,44,9,9,13,4,0,15,3.75,7,Lc,0.2537045454545454,0.4202222222222221,0.2643333333333333,0.13138461538461538,0.5,20,15,10,3,3
1,2,3,0,6,3.1109999999999975,5,12,7,85,58,10,13.724999999999989,0.9759999999999995,3.9649999999999967,2.8669999999999978,20,5,12,10,49,5,16,10,6,0,19,4.75,7,Lc,0.2801020408163265,0.19519999999999998,0.2478125,0.2867,0.5,20,15,10,3,3
1,2,4,0,5,2.439999999999998,10,12,44,42,64,80,10.613999999999992,2.3789999999999982,2.500999999999998,1.0369999999999995,20,9,9,6,52,10,10,6,5,0,17,4.25,7,Lc,0.20411538461538462,0.23789999999999997,0.25009999999999993,0.17283333333333334,0.5,20,15,10,3,3
1,3,5,0,6,2.0129999999999986,10,12,60,9,53,93,10.247999999999992,3.1109999999999975,1.1589999999999994,1.646999999999999,20,9,7,8,49,11,7,10,6,0,17,4.25,7,Lc,0.20914285714285713,0.2828181818181818,0.16557142857142856,0.1647,0.5,20,15,10,3,3
1,3,6,0,4,2.439999999999998,7,8,20,17,99,24,18.299999999999986,1.0979999999999994,0.6099999999999999,0.9149999999999996,20,3,4,2,89,3,4,3,2,0.5,38,5,7,Lc,0.20561797752808986,0.366,0.1525,0.30499999999999994,0.5,20,15,10,3,3
1,4,7,0,8,5.245999999999996,14,26,16,115,109,57,14.39599999999999,1.1589999999999994,0.427,1.2809999999999993,20,4,1,7,63,4,1,7,2,0,14,3.5,7,Lc,0.22850793650793647,0.28975,0.427,0.183,0.5,20,15,10,3,3
1,4,8,0,1,2.1349999999999985,10,14,80,7,6,74,5.7339999999999955,2.744999999999998,6.282999999999995,2.3179999999999983,20,8,15,7,30,12,27,8,3,0,18,4.5,7,Lc,0.19113333333333332,0.22874999999999998,0.23270370370370366,0.28974999999999995,0.5,20,15,10,3,3
1,5,9,0,1,1.0369999999999995,3,4,75,82,74,7,9.393999999999993,1.4029999999999991,0.488,1.7079999999999989,19,8,2,7,27,9,2,8,3,0.5,24,3.75,7,Lc,0.34792592592592586,0.15588888888888888,0.244,0.21349999999999997,0.5,20,15,10,3,3
1,5,10,0,3,2.439999999999998,8,12,32,29,17,112,3.4769999999999976,4.391999999999997,3.659999999999997,2.0129999999999986,13,13,8,5,17,16,12,5,5,0,18,4.5,7,Lc,0.20452941176470588,0.27449999999999997,0.30499999999999994,0.4025999999999999,0.5,20,15,10,3,3
1,6,11,0,6,2.0129999999999986,5,5,6,2,58,88,8.051999999999994,5.367999999999996,3.1109999999999975,0.9149999999999996,17,12,12,5,28,24,15,6,6,0,19,4.75,7,Lc,0.28757142857142853,0.22366666666666665,0.2074,0.1525,0.5,20,15,10,3,3
1,6,12,0,1,1.7079999999999989,7,7,75,83,106,24,7.258999999999995,12.13899999999999,2.439999999999998,2.500999999999998,20,18,7,10,31,48,9,14,3,0,14,3.5,7,Lc,0.23416129032258062,0.25289583333333326,0.2711111111111111,0.17864285714285713,0.5,20,15,10,3,3
1,7,13,1,3,1.4029999999999991,5,5,84,35,51,78,7.380999999999995,0.8539999999999996,3.2329999999999974,0.5489999999999999,20,6,9,5,32,6,12,5,5,0,15,3.75,7,Lc,0.23065624999999998,0.14233333333333334,0.26941666666666664,0.1098,0.5,20,15,10,3,3
1,7,14,1,8,2.0739999999999985,10,15,110,5,113,95,10.979999999999992,1.0979999999999994,5.550999999999996,1.8909999999999987,20,2,15,6,50,2,22,6,2,0,13,3.25,7,Lc,0.21959999999999996,0.5489999999999998,0.25231818181818183,0.31516666666666665,0.5,20,15,10,3,3
1,8,15,1,5,4.208999999999997,13,19,40,46,42,51,9.698999999999993,0.7929999999999997,0.8539999999999996,2.805999999999998,20,2,4,7,42,2,4,10,5,0.5,34,4.75,7,Lc,0.2309285714285714,0.39649999999999996,0.21349999999999997,0.28059999999999996,0.5,20,15,10,3,3
1,8,16,1,6,2.9279999999999977,12,15,3,81,100,104,44.407999999999966,0.061,0.305,0.366,20,1,3,2,185,1,3,2,6,0,13,3.25,7,Lc,0.24004324324324322,0.061,0.10166666666666667,0.183,0.5,20,15,10,3,3
1,9,17,1,4,6.8319999999999945,17,33,4,26,59,104,12.07799999999999,1.463999999999999,0.244,7.563999999999994,20,7,1,13,54,7,1,27,2,0,17,4.25,7,Lc,0.22366666666666665,0.20914285714285713,0.244,0.2801481481481481,0.5,20,15,10,3,3
1,9,18,1,5,2.2569999999999983,6,9,37,40,78,14,5.001999999999996,2.0739999999999985,5.123999999999996,1.646999999999999,15,5,10,7,24,5,17,9,5,0,19,4.75,7,Lc,0.20841666666666667,0.4147999999999999,0.3014117647058823,0.183,0.5,20,15,10,3,3
1,10,19,1,2,4.452999999999997,10,16,55,50,106,59,12.687999999999992,7.197999999999994,0.244,1.0979999999999994,20,16,2,4,49,38,2,5,4,0.5,26,3.5,7,Lc,0.25893877551020406,0.18942105263157893,0.122,0.2196,0.5,20,15,10,3,3
1,10,20,1,5,1.8909999999999987,6,7,9,4,8,92,13.23699999999999,3.1109999999999975,3.537999999999997,0.061,20,10,13,1,43,11,15,1,5,0.5,39,5.25,7,Lc,0.30783720930232555,0.2828181818181818,0.23586666666666664,0.061,0.5,20,15,10,3,3
1,11,21,1,7,2.622999999999998,7,9,14,48,108,87,20.617999999999984,0.244,0.061,0.8539999999999996,20,1,1,5,75,1,1,5,6,0,16,4,7,Lc,0.27490666666666663,0.244,0.061,0.1708,0.5,20,15,10,3,3
1,11,22,1,3,4.208999999999997,11,16,30,49,53,31,9.515999999999993,8.356999999999994,0.7319999999999998,0.183,20,15,2,1,34,37,2,1,5,0,18,4.5,7,Lc,0.2798823529411764,0.22586486486486484,0.36599999999999994,0.183,0.5,20,15,10,3,3
1,12,23,1,7,2.8669999999999978,11,17,19,114,13,18,12.38299999999999,1.646999999999999,0.5489999999999999,3.4159999999999973,20,8,4,11,54,11,4,15,6,0.5,38,5,7,Lc,0.2293148148148148,0.14972727272727274,0.13724999999999998,0.22773333333333332,0.5,20,15,10,3,3
1,12,24,1,6,0.6709999999999998,3,4,10,4,5,11,2.134999999999999,3.537999999999997,5.7339999999999955,0.8539999999999996,9,13,15,3,15,17,27,3,6,1,72,6,7,Lc,0.14233333333333334,0.20811764705882352,0.21237037037037035,0.2846666666666667,0.5,20,15,10,3,3
1,13,25,1,3,1.585999999999999,8,10,32,34,27,33,15.981999999999987,0.488,0.5489999999999999,0.061,20,3,4,1,74,3,4,1,5,1,60,5,7,Lc,0.21597297297297297,0.16266666666666665,0.13724999999999998,0.061,0.5,20,15,10,3,3
1,13,26,1,7,1.0979999999999994,6,7,19,59,18,13,5.489999999999997,4.879999999999996,6.709999999999995,0.122,19,11,18,1,33,16,36,1,6,0.5,40,5.5,7,Lc,0.16636363636363635,0.30499999999999994,0.18638888888888888,0.122,0.5,20,15,10,3,3
1,14,27,1,10,1.2809999999999993,4,5,96,49,87,100,11.95599999999999,1.0979999999999994,0.244,3.476999999999997,20,4,2,9,54,4,2,12,3,0,12,3,7,Lc,0.22140740740740739,0.27449999999999997,0.122,0.28974999999999995,0.5,20,15,10,3,3
1,14,28,1,7,2.2569999999999983,7,10,24,110,75,13,4.147999999999997,6.160999999999995,7.319999999999994,1.4029999999999991,14,13,14,8,25,25,33,9,6,0,17,4.25,7,Lc,0.16591999999999998,0.24643999999999996,0.2218181818181818,0.15588888888888888,0.5,20,15,10,3,3
1,15,29,1,8,2.2569999999999983,6,10,109,113,65,62,11.467999999999991,0.305,11.406999999999991,7.380999999999994,20,1,14,15,40,1,40,31,2,0,12,3,7,Lc,0.28669999999999995,0.305,0.2851749999999999,0.23809677419354838,0.5,20,15,10,3,3
1,15,30,1,1,1.2199999999999993,7,7,107,55,82,73,9.576999999999993,1.2809999999999993,2.683999999999998,1.7689999999999988,20,5,8,7,40,5,15,11,3,0,12,3,7,Lc,0.23942499999999997,0.2562,0.17893333333333333,0.1608181818181818,0.5,20,15,10,3,3
1,16,31,1,7,0.9149999999999996,3,3,16,83,20,102,6.221999999999996,4.208999999999997,0.5489999999999999,3.1719999999999975,17,11,2,11,26,18,2,15,6,0,17,4.25,7,Lc,0.23930769230769228,0.2338333333333333,0.27449999999999997,0.21146666666666666,0.5,20,15,10,3,3
1,16,32,1,6,2.3179999999999983,9,13,58,10,12,7,13.724999999999989,0.9149999999999996,3.1109999999999975,1.1589999999999994,20,6,8,6,65,7,12,6,6,0.5,40,5.5,7,Lc,0.21115384615384614,0.1307142857142857,0.2592499999999999,0.19316666666666665,0.5,20,15,10,3,3
1,17,33,1,5,2.744999999999998,11,17,46,48,41,113,14.029999999999989,2.744999999999998,0.6709999999999998,4.452999999999997,20,9,2,14,67,12,2,22,5,0.5,32,4.25,7,Lc,0.20940298507462685,0.22875,0.3355,0.2024090909090909,0.5,20,15,10,3,3
1,17,34,1,3,2.439999999999998,8,10,34,31,33,29,5.916999999999995,2.2569999999999983,0.366,5.123999999999996,17,6,1,13,20,7,1,20,5,1,60,5,7,Lc,0.29584999999999995,0.3224285714285714,0.366,0.2562,0.5,20,15,10,3,3
1,18,35,1,8,1.3419999999999992,5,6,15,120,83,46,178.48600000001304,0.061,0.061,0.061,20,1,1,1,734,1,1,1,2,0,16,4,7,Lc,0.24316893732970024,0.061,0.061,0.061,0.5,20,15,10,3,3
1,18,36,1,2,3.0499999999999976,9,18,55,2,11,103,8.112999999999994,4.635999999999997,1.0369999999999995,1.0369999999999995,20,13,2,1,35,22,2,1,4,0,18,4.5,7,Lc,0.23179999999999998,0.21072727272727274,0.5185,1.0369999999999995,0.5,20,15,10,3,3
1,1,1,0,1,3.4159999999999973,12,16,101,77,51,36,13.35899999999999,0.5489999999999999,0.305,2.0129999999999986,20,4,2,6,55,4,2,6,3,0,14,3.5,6,Lc,0.24289090909090907,0.13724999999999998,0.1525,0.33549999999999996,0.5,20,15,10,3,4
1,1,2,0,9,2.3179999999999983,9,11,67,16,64,92,5.001999999999996,4.269999999999997,3.903999999999997,1.8299999999999987,17,9,11,8,20,18,13,9,4,0,17,4.25,6,Lc,0.2501,0.2372222222222222,0.3003076923076923,0.20333333333333334,0.5,20,15,10,3,4
1,2,3,0,2,2.622999999999998,8,12,95,94,88,5,10.308999999999992,0.6099999999999999,5.7339999999999955,3.903999999999997,20,1,15,12,41,1,28,17,4,0.5,24,3.75,6,Lc,0.2514390243902439,0.6099999999999999,0.20478571428571427,0.2296470588235294,0.5,20,15,10,3,4
1,2,4,0,9,4.147999999999997,14,22,70,68,99,23,9.393999999999993,1.524999999999999,2.9889999999999977,1.7079999999999989,20,6,8,5,43,6,12,7,4,0,16,4,6,Lc,0.21846511627906975,0.2541666666666666,0.24908333333333332,0.24399999999999997,0.5,20,15,10,3,4
1,3,5,0,7,1.463999999999999,6,6,91,16,58,18,10.491999999999992,2.0129999999999986,0.6099999999999999,2.3789999999999982,20,11,4,6,38,13,4,6,6,0,19,4.75,6,Lc,0.2761052631578947,0.15484615384615386,0.1525,0.39649999999999996,0.5,20,15,10,3,4
1,3,6,0,3,2.1959999999999984,10,13,26,35,7,63,9.637999999999993,1.585999999999999,3.2329999999999974,1.3419999999999992,20,8,9,5,44,8,15,6,5,0,20,5,6,Lc,0.21904545454545452,0.19824999999999998,0.21553333333333333,0.22366666666666665,0.5,20,15,10,3,4
1,4,7,0,7,1.8909999999999987,8,9,70,15,24,19,11.284999999999991,2.1959999999999984,0.427,1.3419999999999992,20,4,2,7,48,4,2,8,6,0.5,40,5.5,6,Lc,0.23510416666666661,0.5489999999999999,0.2135,0.16774999999999998,0.5,20,15,10,3,4
1,4,8,0,8,2.744999999999998,10,13,115,32,36,120,9.088999999999993,0.305,0.7319999999999998,2.683999999999998,20,1,4,8,30,1,4,9,2,0,14,3.5,6,Lc,0.3029666666666666,0.305,0.183,0.2982222222222222,0.5,20,15,10,3,4
1,5,9,0,6,2.3789999999999982,9,14,3,11,7,33,6.953999999999995,3.903999999999997,5.611999999999996,17.445999999999987,20,10,14,16,29,16,34,59,6,0.5,41,5.75,6,Lc,0.23979310344827584,0.244,0.16505882352941176,0.29569491525423724,0.5,20,15,10,3,4
1,5,10,0,7,2.561999999999998,10,10,21,66,61,17,11.284999999999991,5.7339999999999955,0.366,1.9519999999999986,20,15,1,9,48,24,1,10,6,0,20,5,6,Lc,0.23510416666666664,0.23891666666666664,0.366,0.19519999999999998,0.5,20,15,10,3,4
1,6,11,1,10,2.1959999999999984,6,10,104,95,88,33,13.29799999999999,0.9759999999999995,2.500999999999998,0.6709999999999998,20,5,7,3,54,5,10,3,3,0,13,3.25,6,Lc,0.24625925925925923,0.19519999999999998,0.2501,0.22366666666666665,0.5,20,15,10,3,4
1,6,12,1,1,0.8539999999999996,2,3,84,110,6,80,8.722999999999994,2.3789999999999982,3.903999999999997,0.6709999999999998,19,8,12,3,39,9,18,3,3,0,14,3.5,6,Lc,0.22366666666666665,0.2643333333333333,0.21688888888888888,0.22366666666666665,0.5,20,15,10,3,4
1,7,13,1,3,1.1589999999999994,6,6,32,99,36,95,9.698999999999993,4.513999999999997,0.183,2.0739999999999985,20,12,2,4,44,20,2,4,5,0,15,3.75,6,Lc,0.22043181818181817,0.22569999999999998,0.0915,0.5184999999999998,0.5,20,15,10,3,4
1,7,14,1,8,2.0739999999999985,8,9,120,7,109,119,10.186999999999992,0.183,0.061,2.1349999999999985,20,1,1,8,36,1,1,8,2,0.5,18,3,6,Lc,0.2829722222222222,0.183,0.061,0.266875,0.5,20,15,10,3,4
1,8,15,1,10,2.683999999999998,11,17,104,94,65,96,13.907999999999989,1.9519999999999986,2.1349999999999985,0.5489999999999999,20,8,8,2,67,10,9,2,3,0,12,3,6,Lc,0.20758208955223878,0.19519999999999998,0.2372222222222222,0.27449999999999997,0.5,20,15,10,3,4
1,8,16,1,5,1.7079999999999989,8,8,38,39,117,120,4.147999999999997,7.624999999999994,2.622999999999998,0.6709999999999998,15,14,7,2,16,33,10,2,5,0,14,3.5,6,Lc,0.25925,0.23106060606060605,0.2623,0.3354999999999999,0.5,20,15,10,3,4
1,9,17,1,3,1.585999999999999,6,8,28,29,117,33,5.001999999999996,3.720999999999997,2.0739999999999985,4.452999999999997,16,10,8,9,25,13,10,13,5,0.5,32,4.25,6,Lc,0.20008,0.2862307692307692,0.2074,0.3425384615384615,0.5,20,15,10,3,4
1,9,18,1,7,3.720999999999997,8,9,21,24,18,103,5.489999999999996,0.122,4.330999999999997,3.659999999999997,12,1,12,11,13,1,21,16,6,0.5,38,5,6,Lc,0.4223076923076922,0.122,0.20623809523809522,0.22874999999999998,0.5,20,15,10,3,4
1,10,19,1,7,3.3549999999999973,8,14,104,19,24,14,13.41999999999999,0.7929999999999997,1.646999999999999,4.6969999999999965,20,5,8,14,58,5,8,19,6,0.5,38,5,6,Lc,0.23137931034482756,0.1586,0.205875,0.2472105263157894,0.5,20,15,10,3,4
1,10,20,1,8,1.8299999999999987,7,9,4,6,111,114,7.624999999999995,9.332999999999993,0.305,0.122,20,16,2,2,29,28,2,2,2,0,16,4,6,Lc,0.26293103448275856,0.3333214285714285,0.1525,0.061,0.5,20,15,10,3,4
1,11,21,1,9,2.3789999999999982,6,7,69,67,32,28,8.417999999999994,1.2809999999999993,6.526999999999995,1.585999999999999,19,5,12,7,30,5,30,7,4,0,18,4.5,6,Lc,0.28059999999999996,0.25619999999999993,0.21756666666666663,0.22657142857142853,0.5,20,15,10,3,4
1,11,22,1,2,2.0739999999999985,7,7,43,60,104,47,12.62699999999999,1.646999999999999,1.9519999999999986,0.122,20,6,11,1,50,7,13,1,4,0,16,4,6,Lc,0.25254,0.2352857142857142,0.15015384615384614,0.122,0.5,20,15,10,3,4
1,12,23,1,9,1.4029999999999991,7,8,69,7,41,102,7.197999999999995,3.720999999999997,0.122,2.8669999999999978,20,9,2,12,26,10,2,18,4,0,17,4.25,6,Lc,0.2768461538461538,0.37209999999999993,0.061,0.15927777777777777,0.5,20,15,10,3,4
1,12,24,1,3,2.622999999999998,9,11,32,93,33,29,8.417999999999994,4.269999999999997,4.940999999999996,1.1589999999999994,20,14,11,5,31,20,21,5,5,0.5,33,4.5,6,Lc,0.2715483870967742,0.2135,0.23528571428571426,0.2318,0.5,20,15,10,3,4
1,13,25,1,3,1.9519999999999986,9,11,26,31,81,73,13.05399999999999,2.9279999999999977,2.1959999999999984,0.9149999999999996,20,8,6,2,54,10,9,4,5,0,16,4,6,Lc,0.24174074074074073,0.29279999999999995,0.244,0.22875,0.5,20,15,10,3,4
1,13,26,1,5,1.9519999999999986,9,14,87,11,85,105,13.785999999999989,4.635999999999997,2.805999999999998,0.122,20,12,13,1,62,20,17,1,5,0,14,3.5,6,Lc,0.2223548387096774,0.23179999999999998,0.16505882352941176,0.122,0.5,20,15,10,3,4
1,14,27,1,7,2.3789999999999982,10,13,17,20,18,101,3.4769999999999976,3.903999999999997,1.1589999999999994,3.842999999999997,13,10,2,7,16,14,2,12,6,0.5,38,5,6,Lc,0.21731249999999996,0.2788571428571428,0.5794999999999997,0.32025,0.5,20,15,10,3,4
1,14,28,1,9,3.2329999999999974,9,12,67,65,5,82,11.040999999999991,1.0979999999999994,0.366,1.7689999999999988,20,7,1,6,42,7,1,6,4,0,17,4.25,6,Lc,0.2628809523809524,0.15685714285714286,0.366,0.2948333333333333,0.5,20,15,10,3,4
1,15,29,1,3,1.646999999999999,6,6,35,25,82,77,6.831999999999995,0.7319999999999998,4.574999999999997,0.061,20,4,15,1,30,6,21,1,5,0,16,4,6,Lc,0.22773333333333332,0.122,0.21785714285714286,0.061,0.5,20,15,10,3,4
1,15,30,1,8,1.646999999999999,6,8,113,111,112,119,10.064999999999992,0.9149999999999996,0.7929999999999997,6.282999999999995,20,3,5,15,48,3,6,32,2,1,24,2,6,Lc,0.20968749999999997,0.305,0.13216666666666665,0.19634374999999998,0.5,20,15,10,3,4
1,16,31,1,8,1.2199999999999993,5,7,113,118,114,116,7.8079999999999945,6.221999999999995,4.6969999999999965,0.244,20,16,14,2,30,30,23,2,2,1,24,2,6,Lc,0.26026666666666665,0.2074,0.20421739130434782,0.122,0.5,20,15,10,3,4
1,16,32,1,5,1.7079999999999989,5,8,42,4,94,48,7.929999999999994,2.9889999999999977,3.720999999999997,0.6099999999999999,17,11,10,3,35,14,15,3,5,0,19,4.75,6,Lc,0.22657142857142856,0.2135,0.24806666666666666,0.20333333333333334,0.5,20,15,10,3,4
1,17,33,1,10,1.8299999999999987,5,6,94,4,86,5,8.478999999999994,0.8539999999999996,2.622999999999998,1.463999999999999,19,2,7,4,29,2,9,4,3,0,18,4.5,6,Lc,0.29237931034482756,0.42699999999999994,0.2914444444444444,0.36599999999999994,0.5,20,15,10,3,4
1,17,34,1,3,1.8299999999999987,8,10,102,36,29,75,6.831999999999995,2.2569999999999983,4.940999999999996,0.061,19,13,14,1,28,14,22,1,5,0,15,3.75,6,Lc,0.244,0.1612142857142857,0.22459090909090906,0.061,0.5,20,15,10,3,4
1,18,35,1,2,2.0129999999999986,6,8,59,58,56,44,7.197999999999995,0.244,6.526999999999995,1.646999999999999,18,4,12,8,30,4,22,9,4,0.5,29,4.25,6,Lc,0.2399333333333333,0.061,0.29668181818181816,0.183,0.5,20,15,10,3,4
1,18,36,1,6,1.2199999999999993,2,2,1,92,64,35,17.506999999999987,2.744999999999998,2.0129999999999986,1.7689999999999988,20,6,6,6,77,7,6,6,6,0,18,4.5,6,Lc,0.22736363636363635,0.39214285714285707,0.3354999999999999,0.2948333333333332,0.5,20,15,10,3,4
1,19,37,1,2,1.2809999999999993,3,5,25,58,113,92,16.652999999999988,2.683999999999998,2.1349999999999985,2.0739999999999985,20,11,11,5,61,14,12,6,4,0,14,3.5,6,Lc,0.27299999999999996,0.1917142857142857,0.17791666666666667,0.34566666666666657,0.5,20,15,10,3,4
1,19,38,1,6,3.1109999999999975,12,13,40,43,84,61,11.71199999999999,3.2939999999999974,5.672999999999996,1.7689999999999988,20,10,15,8,55,14,26,8,6,0,17,4.25,6,Lc,0.21294545454545452,0.23528571428571426,0.21819230769230766,0.221125,0.5,20,15,10,3,4
1,1,1,0,9,3.903999999999997,12,15,92,71,31,93,8.417999999999994,1.646999999999999,4.513999999999997,1.0979999999999994,20,6,11,4,35,6,15,5,4,0,15,3.75,6,Lc,0.24051428571428568,0.27449999999999997,0.3009333333333333,0.2196,0.5,20,15,10,3,5
1,1,2,0,1,2.683999999999998,8,11,76,74,17,54,11.77299999999999,0.122,1.0369999999999995,3.842999999999997,20,1,7,13,48,1,8,18,3,0,16,4,6,Lc,0.2452708333333333,0.122,0.129625,0.2135,0.5,20,15,10,3,5
1,2,3,0,6,2.8669999999999978,11,11,9,28,77,49,11.406999999999991,1.646999999999999,3.9649999999999967,0.427,20,5,11,1,54,5,13,1,6,0,18,4.5,6,Lc,0.21124074074074073,0.3293999999999999,0.30499999999999994,0.427,0.5,20,15,10,3,5
1,2,4,0,5,3.2939999999999974,12,16,47,45,67,86,9.332999999999993,5.428999999999996,1.8909999999999987,0.061,20,14,7,1,42,21,10,1,5,0,17,4.25,6,Lc,0.2222142857142857,0.2585238095238095,0.1891,0.061,0.5,20,15,10,3,5
1,3,5,0,6,3.537999999999997,9,16,70,6,5,97,8.234999999999994,8.722999999999994,3.1719999999999975,0.183,19,17,15,2,37,36,20,2,6,0,18,4.5,6,Lc,0.22256756756756754,0.24230555555555555,0.1586,0.0915,0.5,20,15,10,3,5
1,3,6,0,3,2.1959999999999984,8,11,33,56,59,15,13.663999999999989,1.7689999999999988,1.585999999999999,1.3419999999999992,20,8,7,6,55,8,8,10,5,0,19,4.75,6,Lc,0.24843636363636362,0.22112499999999996,0.19824999999999998,0.1342,0.5,20,15,10,3,5
1,4,7,0,4,4.574999999999997,13,22,6,60,12,33,17.445999999999987,0.7929999999999997,0.7319999999999998,0.6099999999999999,20,4,2,2,67,5,2,3,2,0,21,5.25,6,Lc,0.2603880597014925,0.1586,0.3659999999999999,0.20333333333333334,0.5,20,15,10,3,5
1,4,8,0,8,2.683999999999998,9,10,117,13,16,111,8.905999999999993,1.7079999999999989,13.54199999999999,0.427,20,6,17,4,34,6,58,6,2,0,16,4,6,Lc,0.26194117647058823,0.2846666666666666,0.23348275862068962,0.07116666666666667,0.5,20,15,10,3,5
1,5,9,0,5,2.9279999999999977,9,11,47,43,1,8,5.7339999999999955,2.683999999999998,6.526999999999995,0.488,18,6,13,2,27,9,25,2,5,0,22,5.5,6,Lc,0.21237037037037035,0.29822222222222217,0.26108,0.244,0.5,20,15,10,3,5
1,5,10,0,2,2.744999999999998,10,12,50,28,100,55,8.905999999999993,9.271999999999993,0.061,0.183,20,19,1,1,42,44,1,1,4,0,15,3.75,6,Lc,0.21204761904761904,0.2107272727272727,0.061,0.183,0.5,20,15,10,3,5
1,6,11,1,9,2.805999999999998,12,13,64,71,70,1,6.221999999999995,6.343999999999995,3.0499999999999976,1.0979999999999994,20,16,8,4,30,25,9,5,4,0.5,30,4.5,6,Lc,0.2074,0.25376,0.33888888888888885,0.2196,0.5,20,15,10,3,5
1,6,12,1,2,2.0129999999999986,6,9,49,55,102,98,3.8429999999999973,7.380999999999994,1.2199999999999993,0.6099999999999999,13,15,4,5,18,30,4,6,4,0,12,3,6,Lc,0.21349999999999997,0.2460333333333333,0.30499999999999994,0.10166666666666667,0.5,20,15,10,3,5
1,7,13,1,6,1.646999999999999,6,8,11,94,113,6,11.101999999999991,8.112999999999994,0.122,0.305,20,16,2,1,42,31,2,1,6,0,17,4.25,6,Lc,0.2643333333333333,0.26170967741935486,0.061,0.305,0.5,20,15,10,3,5
1,7,14,1,1,3.842999999999997,13,20,74,34,24,84,7.502999999999994,10.613999999999992,2.561999999999998,0.122,20,17,9,1,38,43,11,1,3,0,17,4.25,6,Lc,0.19744736842105262,0.24683720930232556,0.23290909090909084,0.122,0.5,20,15,10,3,5
1,8,15,1,1,2.805999999999998,10,13,73,76,83,65,4.330999999999997,3.842999999999997,12.01699999999999,10.491999999999992,16,11,18,16,19,21,61,35,3,0.5,22,3.25,6,Lc,0.22794736842105262,0.183,0.19699999999999998,0.2997714285714285,0.5,20,15,10,3,5
1,8,16,1,10,5.123999999999996,9,24,14,101,89,90,18.787999999999986,1.2809999999999993,1.7689999999999988,0.6709999999999998,20,8,7,2,78,9,8,2,3,0,14,3.5,6,Lc,0.24087179487179483,0.14233333333333334,0.221125,0.3355,0.5,20,15,10,3,5
1,9,17,1,4,4.025999999999997,12,17,105,96,94,6,9.942999999999993,4.635999999999997,2.561999999999998,0.6099999999999999,20,12,8,2,42,23,12,2,2,0,14,3.5,6,Lc,0.23673809523809522,0.20156521739130434,0.21349999999999997,0.305,0.5,20,15,10,3,5
1,9,18,1,3,2.0739999999999985,8,13,31,115,116,80,3.7209999999999974,10.003999999999992,0.427,1.8909999999999987,10,16,2,6,20,38,2,7,5,0,12,3,6,Lc,0.18605,0.2632631578947368,0.2135,0.27014285714285713,0.5,20,15,10,3,5
1,10,19,1,7,2.500999999999998,8,11,13,35,105,104,14.212999999999989,0.5489999999999999,0.9759999999999995,0.122,20,2,2,1,51,2,2,1,6,0,15,3.75,6,Lc,0.2786862745098039,0.27449999999999997,0.4879999999999999,0.122,0.5,20,15,10,3,5
1,10,20,1,6,2.0129999999999986,6,10,2,85,111,94,8.417999999999994,0.366,3.1719999999999975,1.2809999999999993,17,2,10,6,35,2,16,7,6,0,14,3.5,6,Lc,0.24051428571428568,0.183,0.19824999999999998,0.183,0.5,20,15,10,3,5
1,11,21,1,6,1.9519999999999986,7,7,2,7,91,35,4.330999999999997,2.9889999999999977,3.598999999999997,0.9759999999999995,15,11,9,4,17,13,13,5,6,0,20,5,6,Lc,0.2547647058823529,0.2299230769230769,0.2768461538461538,0.19519999999999998,0.5,20,15,10,3,5
1,11,22,1,1,2.500999999999998,6,8,114,76,18,84,9.820999999999993,0.8539999999999996,4.025999999999997,5.428999999999996,20,3,9,13,38,4,15,23,3,0,14,3.5,6,Lc,0.2584473684210526,0.2135,0.26839999999999997,0.23604347826086955,0.5,20,15,10,3,5
1,12,23,1,7,4.6969999999999965,11,18,33,105,32,36,8.844999999999994,1.585999999999999,1.8909999999999987,3.537999999999997,19,4,4,11,31,5,4,12,6,0.5,32,4.25,6,Lc,0.28532258064516125,0.3171999999999999,0.4727499999999999,0.2948333333333333,0.5,20,15,10,3,5
1,12,24,1,6,3.1719999999999975,11,16,4,5,12,85,8.173999999999994,1.4029999999999991,3.842999999999997,3.842999999999997,20,6,10,10,29,8,14,12,6,0.5,39,5.25,6,Lc,0.2818620689655172,0.175375,0.27449999999999997,0.32025,0.5,20,15,10,3,5
1,13,25,1,1,2.439999999999998,8,10,79,99,35,28,10.674999999999992,2.744999999999998,0.7929999999999997,0.183,20,11,4,1,45,14,4,1,3,0,15,3.75,6,Lc,0.2372222222222222,0.19607142857142856,0.19824999999999998,0.183,0.5,20,15,10,3,5
1,13,26,1,8,3.1719999999999975,13,16,116,69,117,92,11.77299999999999,5.489999999999996,0.122,0.366,20,18,1,1,49,30,1,1,2,0,11,2.75,6,Lc,0.24026530612244898,0.183,0.122,0.366,0.5,20,15,10,3,5
1,14,27,1,5,1.4029999999999991,4,5,38,97,90,96,5.367999999999996,4.7579999999999965,0.244,3.781999999999997,15,12,1,11,19,24,1,12,5,0,13,3.25,6,Lc,0.2825263157894737,0.19824999999999998,0.244,0.31516666666666665,0.5,20,15,10,3,5
1,14,28,1,7,3.9649999999999967,11,22,15,71,78,73,7.075999999999994,20.983999999999984,2.0129999999999986,0.5489999999999999,20,18,10,6,37,86,10,6,6,0,16,4,6,Lc,0.19124324324324324,0.24399999999999997,0.20129999999999998,0.0915,0.5,20,15,10,3,5
1,15,29,1,6,2.0739999999999985,9,13,3,91,7,85,5.245999999999996,3.1109999999999975,4.513999999999997,1.4029999999999991,20,11,15,5,29,11,28,7,6,0,18,4.5,6,Lc,0.18089655172413793,0.2828181818181818,0.1612142857142857,0.20042857142857143,0.5,20,15,10,3,5
1,15,30,1,2,1.646999999999999,7,10,55,56,20,52,5.794999999999996,0.244,2.3789999999999982,8.478999999999994,15,1,10,16,26,1,12,39,4,0.5,30,4.5,6,Lc,0.22288461538461538,0.244,0.19824999999999998,0.2174102564102564,0.5,20,15,10,3,5
1,16,31,1,9,1.3419999999999992,7,8,68,85,71,62,8.234999999999994,4.391999999999997,1.0369999999999995,0.8539999999999996,19,13,4,3,35,21,4,5,4,0.5,27,3.75,6,Lc,0.23528571428571426,0.20914285714285713,0.25925,0.1708,0.5,20,15,10,3,5
1,16,32,1,2,2.3179999999999983,7,13,104,103,57,106,7.990999999999994,2.683999999999998,0.6099999999999999,3.1719999999999975,20,8,4,10,35,11,5,11,4,0.5,16,2.5,6,Lc,0.2283142857142857,0.244,0.122,0.2883636363636363,0.5,20,15,10,3,5
1,17,33,1,7,2.561999999999998,9,10,99,15,19,100,8.905999999999993,1.524999999999999,2.500999999999998,8.905999999999993,20,5,13,16,35,6,16,39,6,0,16,4,6,Lc,0.2544571428571428,0.25416666666666665,0.1563125,0.22835897435897434,0.5,20,15,10,3,5
1,17,34,1,1,0.8539999999999996,2,2,73,74,7,82,6.160999999999996,9.515999999999993,1.7689999999999988,1.463999999999999,15,15,8,5,22,35,8,5,3,0.5,24,3.75,6,Lc,0.28004545454545454,0.27188571428571423,0.221125,0.29279999999999995,0.5,20,15,10,3,5
1,18,35,1,5,2.8669999999999978,8,9,48,108,44,46,5.611999999999996,7.9299999999999935,2.805999999999998,0.183,17,18,10,2,20,34,14,2,5,0.5,32,4.25,6,Lc,0.28059999999999996,0.23323529411764704,0.2004285714285714,0.0915,0.5,20,15,10,3,5
1,18,36,1,3,1.524999999999999,3,4,26,28,96,94,2.012999999999999,1.524999999999999,8.356999999999994,0.7319999999999998,5,5,15,6,6,7,30,6,5,0,16,4,6,Lc,0.33549999999999996,0.21785714285714283,0.27856666666666663,0.122,0.5,20,15,10,3,5
1,19,37,1,8,3.781999999999997,9,17,88,112,113,119,14.578999999999988,2.744999999999998,0.183,6.099999999999995,20,7,2,12,61,10,2,23,2,0.5,15,2.25,6,Lc,0.239,0.27449999999999997,0.0915,0.2652173913043478,0.5,20,15,10,3,5
1,19,38,1,1,3.476999999999997,9,15,82,84,22,75,4.391999999999997,5.001999999999996,6.770999999999995,3.1719999999999975,12,12,17,9,18,18,35,11,3,0.5,24,3.75,6,Lc,0.24399999999999997,0.27788888888888885,0.19345714285714286,0.2883636363636363,0.5,20,15,10,3,5
1,1,1,0,6,2.9279999999999977,7,9,50,3,84,2,12.50499999999999,2.3179999999999983,1.7079999999999989,6.160999999999995,20,9,5,14,45,15,5,25,6,0,19,4.75,6,Lc,0.27788888888888885,0.15453333333333333,0.3416,0.24643999999999996,0.5,20,15,10,3,6
1,1,2,0,9,3.781999999999997,11,17,71,29,89,100,8.844999999999994,1.585999999999999,0.7319999999999998,4.208999999999997,20,7,2,12,35,8,2,15,4,0,14,3.5,6,Lc,0.25271428571428567,0.19824999999999998,0.366,0.28059999999999996,0.5,20,15,10,3,6
1,2,3,0,7,2.622999999999998,7,7,58,52,83,15,12.74899999999999,4.330999999999997,1.0979999999999994,2.0739999999999985,20,13,4,8,55,19,4,11,6,0,17,4.25,6,Lc,0.23179999999999995,0.22794736842105262,0.27449999999999997,0.18854545454545452,0.5,20,15,10,3,6
1,2,4,0,9,3.720999999999997,14,22,68,28,86,91,10.003999999999992,3.537999999999997,3.659999999999997,1.585999999999999,20,11,12,8,46,16,18,8,4,0,15,3.75,6,Lc,0.21747826086956518,0.221125,0.20333333333333334,0.19824999999999998,0.5,20,15,10,3,6
1,3,5,0,8,2.2569999999999983,11,15,118,117,54,76,10.857999999999992,4.635999999999997,0.7929999999999997,1.0369999999999995,20,15,7,6,42,21,7,7,2,0,11,2.75,6,Lc,0.2585238095238095,0.22076190476190474,0.11328571428571428,0.14814285714285713,0.5,20,15,10,3,6
1,3,6,0,4,3.4159999999999973,12,16,107,93,61,67,5.916999999999995,7.502999999999994,2.8669999999999978,1.2199999999999993,20,12,8,6,28,20,10,6,2,0,13,3.25,6,Lc,0.21132142857142855,0.37514999999999993,0.28669999999999995,0.2033333333333333,0.5,20,15,10,3,6
1,4,7,0,8,3.903999999999997,12,21,116,4,118,5,9.698999999999993,2.622999999999998,6.770999999999995,0.305,20,6,13,2,44,9,28,2,2,0,16,4,6,Lc,0.22043181818181815,0.2914444444444444,0.24182142857142855,0.1525,0.5,20,15,10,3,6
1,4,8,0,1,4.269999999999997,10,17,84,33,23,97,14.45699999999999,1.1589999999999994,0.305,1.0979999999999994,20,8,3,4,62,8,3,4,3,0,16,4,6,Lc,0.23317741935483868,0.144875,0.10166666666666667,0.27449999999999997,0.5,20,15,10,3,6
1,5,9,0,2,1.585999999999999,9,10,59,74,79,58,16.835999999999988,1.8299999999999987,4.391999999999997,2.622999999999998,20,8,11,12,80,8,15,12,4,0,14,3.5,6,Lc,0.21044999999999997,0.22874999999999998,0.29279999999999995,0.21858333333333335,0.5,20,15,10,3,6
1,5,10,0,9,2.683999999999998,10,13,63,70,65,90,7.380999999999995,2.3179999999999983,6.221999999999995,2.9889999999999977,20,6,13,12,28,11,22,18,4,0.5,27,3.75,6,Lc,0.2636071428571428,0.2107272727272727,0.2828181818181818,0.16605555555555554,0.5,20,15,10,3,6
1,6,11,1,3,1.7689999999999988,5,7,36,105,30,52,10.491999999999992,2.0739999999999985,0.183,1.2809999999999993,20,6,2,5,38,7,2,5,5,0,16,4,6,Lc,0.2761052631578947,0.2962857142857142,0.0915,0.2562,0.5,20,15,10,3,6
1,6,12,1,8,3.537999999999997,8,12,91,112,114,61,6.8929999999999945,7.441999999999994,1.1589999999999994,3.4159999999999973,20,13,5,12,30,34,5,19,2,0,11,2.75,6,Lc,0.22976666666666665,0.21888235294117644,0.23179999999999995,0.17978947368421053,0.5,20,15,10,3,6
1,7,13,1,6,1.646999999999999,4,5,11,5,2,10,9.332999999999993,3.598999999999997,0.244,9.088999999999993,20,9,1,15,41,15,1,35,6,1,72,6,6,Lc,0.2276341463414634,0.2399333333333333,0.244,0.25968571428571424,0.5,20,15,10,3,6
1,7,14,1,9,2.0129999999999986,8,10,78,113,26,28,5.367999999999996,8.417999999999994,0.122,3.1109999999999975,17,17,1,8,23,34,1,12,4,0,15,3.75,6,Lc,0.23339130434782607,0.2475882352941176,0.122,0.2592499999999999,0.5,20,15,10,3,6
1,8,15,1,5,1.4029999999999991,7,8,89,45,106,92,7.197999999999995,1.7079999999999989,2.805999999999998,2.683999999999998,20,7,9,8,28,8,10,10,5,0,13,3.25,6,Lc,0.25707142857142856,0.2135,0.28059999999999996,0.26839999999999997,0.5,20,15,10,3,6
1,8,16,1,3,2.683999999999998,8,17,112,80,60,75,9.332999999999993,2.1959999999999984,4.879999999999996,1.3419999999999992,20,7,12,6,46,9,20,7,5,0,12,3,6,Lc,0.20289130434782607,0.24399999999999997,0.244,0.1917142857142857,0.5,20,15,10,3,6
1,9,17,1,7,2.439999999999998,10,14,93,13,20,17,4.452999999999997,1.2809999999999993,6.221999999999995,0.061,14,4,15,1,19,5,25,1,6,0.5,39,5.25,6,Lc,0.23436842105263156,0.2562,0.24888,0.061,0.5,20,15,10,3,6
1,9,18,1,9,2.805999999999998,8,10,67,70,66,36,7.319999999999995,2.0129999999999986,1.2199999999999993,0.9759999999999995,20,5,5,5,31,6,7,7,4,0.5,29,4.25,6,Lc,0.2361290322580645,0.3354999999999999,0.1742857142857143,0.13942857142857143,0.5,20,15,10,3,6
1,10,19,1,8,3.3549999999999973,9,17,28,113,118,114,7.258999999999994,5.123999999999996,1.0369999999999995,4.6969999999999965,20,14,3,12,34,21,3,16,2,0.5,17,2.75,6,Lc,0.2135,0.244,0.3456666666666667,0.29356249999999995,0.5,20,15,10,3,6
1,10,20,1,2,1.2809999999999993,9,10,108,80,54,102,9.881999999999993,0.7929999999999997,0.9759999999999995,1.8299999999999987,20,4,3,4,47,4,3,6,4,0,11,2.75,6,Lc,0.21025531914893617,0.19824999999999998,0.32533333333333325,0.305,0.5,20,15,10,3,6
1,11,21,1,2,2.622999999999998,8,13,119,85,17,58,10.308999999999992,2.500999999999998,3.2329999999999974,1.4029999999999991,20,13,10,3,47,14,13,3,4,0,15,3.75,6,Lc,0.21934042553191485,0.17864285714285713,0.24869230769230763,0.46766666666666656,0.5,20,15,10,3,6
1,11,22,1,6,1.0369999999999995,4,5,36,7,6,103,3.8429999999999973,1.524999999999999,5.7949999999999955,0.488,13,6,14,2,19,7,21,2,6,0,19,4.75,6,Lc,0.20226315789473684,0.21785714285714286,0.27595238095238095,0.244,0.5,20,15,10,3,6
1,12,23,1,3,4.452999999999997,12,21,117,60,93,94,10.064999999999992,1.524999999999999,2.3179999999999983,1.8299999999999987,20,5,9,9,40,9,9,10,5,0,12,3,6,Lc,0.251625,0.16944444444444443,0.25755555555555554,0.183,0.5,20,15,10,3,6
1,12,24,1,5,2.683999999999998,7,11,104,80,48,72,6.404999999999995,3.2939999999999974,1.646999999999999,2.2569999999999983,15,12,7,2,24,20,8,2,5,0,14,3.5,6,Lc,0.266875,0.16469999999999999,0.205875,1.1284999999999994,0.5,20,15,10,3,6
1,13,25,1,10,2.0739999999999985,8,10,96,94,95,9,2.3179999999999987,1.8909999999999987,0.7319999999999998,3.1109999999999975,10,8,4,6,12,12,4,6,3,0.5,24,3.75,6,Lc,0.19316666666666665,0.15758333333333333,0.183,0.5184999999999997,0.5,20,15,10,3,6
1,13,26,1,8,3.842999999999997,11,18,20,53,14,21,13.907999999999989,0.427,0.6709999999999998,0.061,20,2,3,1,66,2,3,1,2,0.5,40,5.5,6,Lc,0.2107272727272727,0.2135,0.22366666666666665,0.061,0.5,20,15,10,3,6
1,14,27,1,3,2.3789999999999982,5,5,95,50,28,53,7.8689999999999944,1.4029999999999991,1.2809999999999993,3.1109999999999975,18,6,6,10,31,6,7,12,5,0,16,4,6,Lc,0.25383870967741934,0.23383333333333328,0.183,0.25925,0.5,20,15,10,3,6
1,14,28,1,5,1.1589999999999994,6,7,13,17,47,42,17.201999999999988,0.061,0.488,0.061,20,1,4,1,85,1,4,1,5,0,22,5.5,6,Lc,0.20237647058823527,0.061,0.122,0.061,0.5,20,15,10,3,6
1,15,29,1,5,1.585999999999999,7,8,88,119,44,94,3.4159999999999977,2.9889999999999977,0.366,0.8539999999999996,15,8,1,6,18,10,1,6,5,0,13,3.25,6,Lc,0.18977777777777777,0.2988999999999999,0.366,0.14233333333333334,0.5,20,15,10,3,6
1,15,30,1,6,1.2809999999999993,5,7,8,11,5,51,7.258999999999995,1.3419999999999992,1.0979999999999994,0.7929999999999997,20,4,4,2,31,4,4,2,6,0.5,40,5.5,6,Lc,0.23416129032258062,0.33549999999999996,0.27449999999999997,0.39649999999999985,0.5,20,15,10,3,6
1,16,31,1,6,3.1109999999999975,8,16,90,85,89,2,6.465999999999995,4.025999999999997,4.452999999999997,0.305,18,13,15,3,30,15,25,3,6,0.5,24,3.75,6,Lc,0.21553333333333333,0.26839999999999997,0.17812,0.10166666666666667,0.5,20,15,10,3,6
1,16,32,1,5,2.9279999999999977,10,14,78,43,74,38,9.820999999999993,3.598999999999997,4.208999999999997,0.488,20,14,11,2,50,18,14,2,5,0,16,4,6,Lc,0.19641999999999998,0.19994444444444442,0.3006428571428571,0.244,0.5,20,15,10,3,6
1,17,33,1,10,2.1349999999999985,6,7,93,94,60,23,4.635999999999997,3.0499999999999976,5.611999999999996,4.574999999999997,15,11,14,13,20,16,22,24,3,0,16,4,6,Lc,0.23179999999999998,0.190625,0.2550909090909091,0.190625,0.5,20,15,10,3,6
1,17,34,1,9,2.1959999999999984,8,12,70,65,69,114,6.7099999999999955,4.147999999999997,0.6709999999999998,2.2569999999999983,20,11,3,9,31,18,3,12,4,0.5,26,3.5,6,Lc,0.21645161290322582,0.23044444444444442,0.22366666666666665,0.18808333333333332,0.5,20,15,10,3,6
1,18,35,1,1,3.0499999999999976,7,10,6,60,55,84,24.88799999999998,1.1589999999999994,0.427,0.427,20,6,4,3,98,7,4,3,3,0,17,4.25,6,Lc,0.25395918367346937,0.16557142857142856,0.10675,0.14233333333333334,0.5,20,15,10,3,6
1,18,36,1,10,2.683999999999998,9,16,87,18,90,92,3.9039999999999973,5.062999999999996,0.6099999999999999,0.183,12,13,3,1,19,21,3,1,3,0.5,24,3.75,6,Lc,0.20547368421052628,0.24109523809523806,0.20333333333333334,0.183,0.5,20,15,10,3,6
1,19,37,1,4,1.7079999999999989,9,10,83,60,57,100,4.513999999999997,1.2809999999999993,3.2329999999999974,0.6709999999999998,15,8,9,4,20,8,14,4,2,0,13,3.25,6,Lc,0.22569999999999996,0.160125,0.23092857142857143,0.16775,0.5,20,15,10,3,6
1,19,38,1,6,2.2569999999999983,7,8,9,113,4,48,11.650999999999991,2.0129999999999986,2.9889999999999977,3.659999999999997,20,7,9,7,44,8,10,13,6,0,19,4.75,6,Lc,0.2647954545454545,0.251625,0.2988999999999999,0.2815384615384615,0.5,20,15,10,3,6
1,1,1,0,7,2.622999999999998,10,13,13,16,101,73,9.820999999999993,1.524999999999999,12.32199999999999,1.646999999999999,20,6,18,5,51,7,55,6,6,0,17,4.25,6,Lc,0.19256862745098038,0.21785714285714286,0.22403636363636362,0.27449999999999997,0.5,20,15,10,3,7
1,1,2,0,8,0.9149999999999996,5,5,50,119,91,87,6.892999999999995,2.805999999999998,1.9519999999999986,2.1959999999999984,19,9,8,8,28,14,9,10,2,0,12,3,6,Lc,0.24617857142857139,0.20042857142857143,0.21688888888888888,0.2196,0.5,20,15,10,3,7
1,2,3,0,5,2.2569999999999983,9,13,23,107,104,38,13.602999999999989,0.244,0.9149999999999996,3.1109999999999975,20,2,5,10,67,2,5,13,5,0,15,3.75,6,Lc,0.20302985074626864,0.122,0.183,0.2393076923076923,0.5,20,15,10,3,7
1,2,4,0,9,3.4159999999999973,14,18,70,35,2,94,12.32199999999999,0.9149999999999996,4.208999999999997,0.183,20,1,15,2,56,2,21,2,4,0,18,4.5,6,Lc,0.22003571428571428,0.45749999999999985,0.20042857142857143,0.0915,0.5,20,15,10,3,7
1,3,5,0,9,2.2569999999999983,10,11,102,22,95,97,10.613999999999992,2.805999999999998,1.2199999999999993,1.0979999999999994,20,9,4,5,40,10,6,6,4,0,13,3.25,6,Lc,0.26535,0.28059999999999996,0.2033333333333333,0.183,0.5,20,15,10,3,7
1,3,6,0,1,3.903999999999997,12,15,76,81,77,1,8.478999999999994,5.611999999999996,1.8299999999999987,1.2199999999999993,20,13,3,3,36,22,3,3,3,0.5,24,3.75,6,Lc,0.23552777777777775,0.2550909090909091,0.6099999999999999,0.40666666666666657,0.5,20,15,10,3,7
1,4,7,0,2,2.3179999999999983,7,10,92,57,49,15,13.23699999999999,0.6709999999999998,1.0369999999999995,3.659999999999997,20,2,2,14,57,3,2,20,4,0,17,4.25,6,Lc,0.2322280701754386,0.22366666666666665,0.5185,0.183,0.5,20,15,10,3,7
1,4,8,0,9,2.622999999999998,10,12,71,62,118,12,8.905999999999993,4.025999999999997,7.9299999999999935,2.744999999999998,20,12,16,5,37,20,43,8,4,0,16,4,6,Lc,0.24070270270270266,0.20129999999999998,0.18441860465116278,0.3431249999999999,0.5,20,15,10,3,7
1,5,9,0,1,2.744999999999998,10,14,74,120,82,78,12.19999999999999,1.463999999999999,3.659999999999997,1.4029999999999991,20,7,10,5,49,7,11,5,3,0.5,20,2.75,6,Lc,0.24897959183673468,0.20914285714285713,0.3327272727272727,0.2806,0.5,20,15,10,3,7
1,5,10,0,2,1.3419999999999992,4,5,52,50,88,106,11.650999999999991,1.4029999999999991,3.4159999999999973,2.1959999999999984,20,4,14,11,38,4,19,14,4,0,13,3.25,6,Lc,0.3066052631578947,0.35074999999999995,0.17978947368421053,0.15685714285714286,0.5,20,15,10,3,7
1,6,11,1,1,3.4159999999999973,10,15,78,83,101,37,4.147999999999997,5.001999999999996,2.683999999999998,7.136999999999994,13,10,7,16,20,17,8,37,3,0,13,3.25,6,Lc,0.20739999999999997,0.29423529411764704,0.33549999999999996,0.19289189189189188,0.5,20,15,10,3,7
1,6,12,1,8,2.0739999999999985,6,12,112,109,94,30,9.881999999999993,2.500999999999998,0.9149999999999996,7.502999999999994,20,8,4,15,51,10,4,32,2,0,12,3,6,Lc,0.19376470588235292,0.2501,0.22875,0.23446874999999998,0.5,20,15,10,3,7
1,7,13,1,7,2.561999999999998,9,10,15,14,48,91,10.003999999999992,6.648999999999995,1.2809999999999993,1.585999999999999,20,16,8,4,32,31,9,5,6,0,20,5,6,Lc,0.31262499999999993,0.21448387096774194,0.14233333333333334,0.3172,0.5,20,15,10,3,7
1,7,14,1,2,1.4029999999999991,6,8,58,108,31,7,8.112999999999994,1.0369999999999995,1.0369999999999995,5.855999999999995,20,4,6,14,35,5,7,30,4,0,17,4.25,6,Lc,0.23179999999999998,0.20739999999999997,0.14814285714285713,0.19519999999999998,0.5,20,15,10,3,7
1,8,15,1,9,2.9889999999999977,12,16,71,63,87,26,7.075999999999995,1.8299999999999987,6.648999999999995,0.9149999999999996,20,6,11,6,38,7,23,6,4,0,16,4,6,Lc,0.18621052631578947,0.2614285714285714,0.28908695652173905,0.1525,0.5,20,15,10,3,7
1,8,16,1,1,3.598999999999997,10,16,81,60,76,82,10.674999999999992,3.842999999999997,0.9759999999999995,1.4029999999999991,20,11,3,6,36,12,3,7,3,0.5,22,3.25,6,Lc,0.2965277777777777,0.3202499999999999,0.3253333333333333,0.20042857142857143,0.5,20,15,10,3,7
1,9,17,1,5,2.2569999999999983,8,9,41,43,37,60,3.049999999999998,1.9519999999999986,5.428999999999996,1.524999999999999,11,5,14,6,12,8,31,6,5,0.5,34,4.75,6,Lc,0.25416666666666665,0.24399999999999994,0.1751290322580645,0.25416666666666665,0.5,20,15,10,3,7
1,9,18,1,3,1.3419999999999992,7,10,36,32,29,27,7.197999999999995,0.6709999999999998,9.881999999999993,3.842999999999997,19,4,16,12,30,4,47,20,5,1,60,5,6,Lc,0.2399333333333333,0.16775,0.21025531914893617,0.19215,0.5,20,15,10,3,7
1,10,19,1,8,3.0499999999999976,9,12,3,57,53,93,64.65999999999995,0.183,0.061,0.061,20,2,1,1,236,2,1,1,2,0,17,4.25,6,Lc,0.2739830508474576,0.0915,0.061,0.061,0.5,20,15,10,3,7
1,10,20,1,4,1.524999999999999,6,7,102,28,108,27,9.698999999999993,1.463999999999999,0.366,0.061,20,4,2,1,40,5,2,1,2,0,14,3.5,6,Lc,0.24247499999999997,0.2928,0.183,0.061,0.5,20,15,10,3,7
1,11,21,1,5,2.805999999999998,11,14,45,39,40,49,11.589999999999991,0.6709999999999998,0.366,10.918999999999992,20,3,2,17,57,3,2,48,5,0.5,34,4.75,6,Lc,0.2033333333333333,0.22366666666666665,0.183,0.22747916666666665,0.5,20,15,10,3,7
1,11,22,1,8,3.720999999999997,9,16,29,87,114,95,19.580999999999985,0.488,0.244,0.061,20,3,2,1,87,3,2,1,2,0,13,3.25,6,Lc,0.22506896551724137,0.16266666666666665,0.122,0.061,0.5,20,15,10,3,7
1,12,23,1,3,4.269999999999997,11,20,86,36,9,55,15.615999999999989,3.3549999999999973,1.646999999999999,0.6099999999999999,20,13,5,2,75,21,5,3,5,0,18,4.5,6,Lc,0.2082133333333333,0.15976190476190474,0.32939999999999997,0.20333333333333334,0.5,20,15,10,3,7
1,12,24,1,8,1.7079999999999989,5,7,115,109,44,13,15.127999999999988,0.122,11.77299999999999,4.269999999999997,20,1,15,9,57,1,53,18,2,0,15,3.75,6,Lc,0.2654035087719298,0.122,0.22213207547169808,0.23722222222222222,0.5,20,15,10,3,7
1,13,25,1,3,1.524999999999999,5,6,29,35,104,26,15.737999999999987,1.646999999999999,3.1719999999999975,2.8669999999999978,20,9,8,10,68,11,8,11,5,0.5,32,4.25,6,Lc,0.2314411764705882,0.14972727272727274,0.3964999999999999,0.2606363636363636,0.5,20,15,10,3,7
1,13,26,1,9,1.524999999999999,3,5,70,68,109,65,4.635999999999997,4.269999999999997,2.500999999999998,3.842999999999997,9,11,10,8,16,16,15,15,4,0.5,26,3.5,6,Lc,0.28974999999999995,0.266875,0.16673333333333332,0.25619999999999993,0.5,20,15,10,3,7
1,14,27,1,8,3.598999999999997,10,14,111,114,22,24,12.62699999999999,0.427,2.8669999999999978,6.953999999999994,20,3,11,16,42,3,16,31,2,0,16,4,6,Lc,0.3006428571428571,0.14233333333333334,0.1791875,0.22432258064516128,0.5,20,15,10,3,7
1,14,28,1,6,1.646999999999999,7,9,6,3,9,86,3.232999999999998,17.384999999999987,0.305,0.061,10,19,2,1,12,72,2,1,6,0.5,39,5.25,6,Lc,0.26941666666666664,0.2414583333333333,0.1525,0.061,0.5,20,15,10,3,7
1,15,29,1,1,2.2569999999999983,9,11,75,78,74,77,8.966999999999993,0.122,3.2329999999999974,0.061,20,2,6,1,41,2,8,1,3,1,36,3,6,Lc,0.2187073170731707,0.061,0.4041249999999999,0.061,0.5,20,15,10,3,7
1,15,30,1,6,3.9649999999999967,10,18,11,8,12,56,14.151999999999989,3.4159999999999973,6.8319999999999945,3.4159999999999973,20,8,15,12,54,9,26,16,6,0.5,40,5.5,6,Lc,0.262074074074074,0.3795555555555555,0.26276923076923075,0.2135,0.5,20,15,10,3,7
1,16,31,1,3,1.4029999999999991,6,6,28,26,12,70,6.7099999999999955,0.9759999999999995,0.6709999999999998,3.537999999999997,18,2,3,10,26,3,4,20,5,0,20,5,6,Lc,0.25807692307692304,0.32533333333333325,0.16775,0.1769,0.5,20,15,10,3,7
1,16,32,1,7,2.2569999999999983,8,11,23,18,19,21,11.223999999999991,4.513999999999997,1.8299999999999987,1.7689999999999988,20,13,8,5,46,23,10,5,6,1,72,6,6,Lc,0.24399999999999997,0.19626086956521738,0.183,0.3538,0.5,20,15,10,3,7
1,17,33,1,9,2.0739999999999985,6,8,68,29,4,89,7.502999999999995,1.585999999999999,8.478999999999994,2.0739999999999985,20,4,17,6,32,4,43,6,4,0,18,4.5,6,Lc,0.23446874999999998,0.39649999999999996,0.1971860465116279,0.3456666666666666,0.5,20,15,10,3,7
1,17,34,1,1,1.8299999999999987,8,11,80,78,55,56,5.977999999999996,1.0979999999999994,14.639999999999988,0.305,20,3,17,2,36,4,51,2,3,0,14,3.5,6,Lc,0.16605555555555554,0.27449999999999997,0.2870588235294117,0.1525,0.5,20,15,10,3,7
1,18,35,1,2,3.842999999999997,9,14,10,6,52,4,8.966999999999993,5.367999999999996,2.8669999999999978,1.463999999999999,20,16,8,6,33,27,12,7,4,0.5,40,5.5,6,Lc,0.2717272727272727,0.1988148148148148,0.23891666666666664,0.20914285714285713,0.5,20,15,10,3,7
1,18,36,1,3,1.2199999999999993,8,10,30,31,26,70,2.195999999999999,0.7319999999999998,5.550999999999996,7.258999999999994,11,1,15,16,13,1,25,31,5,0.5,34,4.75,6,Lc,0.1689230769230769,0.7319999999999998,0.22204,0.23416129032258062,0.5,20,15,10,3,7
1,1,1,0,2,2.9279999999999977,7,14,27,60,55,108,14.395999999999988,1.463999999999999,5.001999999999996,1.463999999999999,20,7,15,6,63,7,32,7,4,0,15,3.75,6,Lc,0.2285079365079365,0.20914285714285713,0.1563125,0.2091428571428571,0.5,20,15,10,3,8
1,1,2,0,9,2.744999999999998,9,13,67,20,63,71,8.173999999999994,4.147999999999997,1.463999999999999,2.500999999999998,20,7,7,7,39,9,8,10,4,0.5,30,4.5,6,Lc,0.20958974358974358,0.4608888888888888,0.183,0.2501,0.5,20,15,10,3,8
1,2,3,0,8,2.1349999999999985,10,13,20,56,53,36,9.698999999999993,2.0739999999999985,4.7579999999999965,0.061,20,7,14,1,42,9,25,1,2,0,19,4.75,6,Lc,0.23092857142857143,0.23044444444444442,0.19032,0.061,0.5,20,15,10,3,8
1,2,4,0,9,2.561999999999998,9,13,72,68,70,85,12.74899999999999,2.561999999999998,0.061,3.9649999999999967,20,9,1,9,53,11,1,15,4,0.5,27,3.75,6,Lc,0.2405471698113207,0.2329090909090909,0.061,0.2643333333333333,0.5,20,15,10,3,8
1,3,5,0,7,2.3789999999999982,6,11,24,20,36,32,14.517999999999988,0.488,7.319999999999994,1.463999999999999,20,3,15,4,76,3,25,4,6,0,22,5.5,6,Lc,0.19102631578947368,0.16266666666666665,0.29279999999999995,0.366,0.5,20,15,10,3,8
1,3,6,0,10,2.439999999999998,10,12,57,59,107,52,10.369999999999992,5.245999999999996,2.9889999999999977,3.720999999999997,20,13,7,13,45,19,8,16,3,0.5,26,3.5,6,Lc,0.23044444444444442,0.2761052631578947,0.373625,0.2325625,0.5,20,15,10,3,8
1,4,7,0,6,4.147999999999997,12,20,51,100,10,49,7.8079999999999945,4.940999999999996,2.0739999999999985,0.366,20,11,11,2,32,16,15,2,6,0,16,4,6,Lc,0.24399999999999997,0.30881249999999993,0.13826666666666668,0.183,0.5,20,15,10,3,8
1,4,8,0,1,2.744999999999998,9,11,81,27,83,36,4.391999999999997,13.23699999999999,0.366,4.635999999999997,15,16,1,12,17,47,1,18,3,0,16,4,6,Lc,0.25835294117647056,0.2816382978723404,0.366,0.25755555555555554,0.5,20,15,10,3,8
1,5,9,0,5,0.9149999999999996,3,4,37,39,100,101,10.430999999999992,3.3549999999999973,1.463999999999999,0.6099999999999999,19,10,4,3,42,15,5,3,5,0,14,3.5,6,Lc,0.24835714285714283,0.22366666666666665,0.2927999999999999,0.20333333333333334,0.5,20,15,10,3,8
1,5,10,0,6,2.9889999999999977,12,16,5,29,7,51,7.136999999999995,5.550999999999996,5.7949999999999955,0.6099999999999999,20,15,13,2,33,28,23,2,6,0,21,5.25,6,Lc,0.21627272727272726,0.19824999999999998,0.2519565217391304,0.30499999999999994,0.5,20,15,10,3,8
1,6,11,1,7,0.7319999999999998,2,3,14,13,25,20,5.916999999999996,13.602999999999989,1.0979999999999994,0.427,13,16,3,3,26,57,4,3,6,0.5,41,5.75,6,Lc,0.22757692307692307,0.23864912280701753,0.27449999999999997,0.14233333333333334,0.5,20,15,10,3,8
1,6,12,1,9,1.7079999999999989,8,9,107,6,65,67,8.966999999999993,6.221999999999995,3.2329999999999974,0.183,20,13,13,2,43,25,15,2,4,0,16,4,6,Lc,0.2085348837209302,0.24887999999999996,0.21553333333333333,0.0915,0.5,20,15,10,3,8
1,7,13,1,8,2.3179999999999983,12,15,109,119,49,53,14.395999999999988,0.7319999999999998,7.441999999999994,1.0979999999999994,20,4,14,4,68,4,40,4,2,0,12,3,6,Lc,0.21170588235294116,0.183,0.18605,0.27449999999999997,0.5,20,15,10,3,8
1,7,14,1,3,2.8669999999999978,9,15,25,6,27,11,10.430999999999992,4.513999999999997,2.683999999999998,0.305,20,15,5,2,38,24,7,2,5,0,22,5.5,6,Lc,0.27449999999999997,0.18808333333333332,0.38342857142857134,0.1525,0.5,20,15,10,3,8
1,8,15,1,8,2.8669999999999978,10,12,119,36,7,2,10.735999999999992,1.0369999999999995,2.0129999999999986,1.0369999999999995,20,4,7,4,39,5,8,5,2,0,19,4.75,6,Lc,0.27528205128205124,0.2074,0.251625,0.2074,0.5,20,15,10,3,8
1,8,16,1,5,1.1589999999999994,5,6,43,42,41,51,1.7689999999999992,6.8319999999999945,3.9649999999999967,0.9759999999999995,7,12,12,4,8,19,16,4,5,0.5,34,4.75,6,Lc,0.221125,0.35957894736842094,0.2478125,0.244,0.5,20,15,10,3,8
1,9,17,1,8,2.744999999999998,8,14,111,9,115,12,12.68799999999999,7.258999999999994,4.391999999999997,0.7929999999999997,20,16,11,5,52,31,15,5,2,0,16,4,6,Lc,0.24399999999999997,0.23416129032258062,0.29279999999999995,0.1586,0.5,20,15,10,3,8
1,9,18,1,4,0.7319999999999998,2,2,107,68,69,25,16.40899999999999,0.305,2.500999999999998,1.7079999999999989,20,1,9,7,77,1,11,9,2,0,15,3.75,6,Lc,0.2131038961038961,0.305,0.22736363636363635,0.18977777777777777,0.5,20,15,10,3,8
1,10,19,1,5,2.561999999999998,5,7,48,42,109,116,6.282999999999995,0.9149999999999996,5.245999999999996,1.3419999999999992,17,4,10,9,25,5,18,11,5,0,14,3.5,6,Lc,0.25132,0.183,0.2914444444444444,0.12200000000000001,0.5,20,15,10,3,8
1,10,20,1,7,1.585999999999999,6,6,24,104,35,21,8.600999999999994,6.465999999999995,4.452999999999997,2.9889999999999977,19,16,12,10,31,38,20,13,6,0,19,4.75,6,Lc,0.2774516129032258,0.1701578947368421,0.22265,0.2299230769230769,0.5,20,15,10,3,8
1,11,21,1,1,1.9519999999999986,7,8,81,79,67,114,4.818999999999996,5.428999999999996,8.966999999999993,0.122,16,13,16,2,22,19,36,2,3,0,12,3,6,Lc,0.21904545454545454,0.2857368421052631,0.24908333333333332,0.061,0.5,20,15,10,3,8
1,11,22,1,6,2.3179999999999983,8,11,1,104,85,5,14.883999999999988,0.8539999999999996,3.903999999999997,3.3549999999999973,20,5,11,9,58,5,22,15,6,0,17,4.25,6,Lc,0.2566206896551724,0.17079999999999998,0.17745454545454545,0.22366666666666665,0.5,20,15,10,3,8
1,12,23,1,1,1.7689999999999988,8,9,76,62,74,75,4.269999999999997,6.160999999999995,1.2809999999999993,3.476999999999997,17,14,7,11,20,22,7,15,3,0.5,22,3.25,6,Lc,0.21349999999999997,0.2800454545454545,0.183,0.23179999999999998,0.5,20,15,10,3,8
1,12,24,1,7,2.744999999999998,9,11,14,13,16,25,11.71199999999999,4.513999999999997,1.7079999999999989,0.122,20,14,6,1,48,22,6,1,6,0.5,41,5.75,6,Lc,0.24399999999999997,0.20518181818181816,0.2846666666666666,0.122,0.5,20,15,10,3,8
1,13,25,1,2,1.4029999999999991,4,7,49,46,107,57,12.26099999999999,9.271999999999993,0.7319999999999998,0.7319999999999998,20,16,4,5,56,29,4,6,4,0,15,3.75,6,Lc,0.21894642857142854,0.31972413793103444,0.183,0.122,0.5,20,15,10,3,8
1,13,26,1,8,2.500999999999998,11,13,119,117,120,114,2.988999999999998,1.646999999999999,5.855999999999995,6.282999999999995,12,4,14,13,14,4,27,23,2,1,24,2,6,Lc,0.2135,0.41174999999999995,0.21688888888888888,0.2731739130434782,0.5,20,15,10,3,8
1,14,27,1,10,4.7579999999999965,16,26,88,92,72,104,8.478999999999994,5.855999999999995,0.183,2.0739999999999985,20,17,1,7,42,26,1,9,3,0,12,3,6,Lc,0.20188095238095236,0.22523076923076923,0.183,0.23044444444444442,0.5,20,15,10,3,8
1,14,28,1,2,2.3789999999999982,8,11,59,58,75,81,5.7339999999999955,0.6709999999999998,5.123999999999996,0.9149999999999996,15,3,13,4,21,3,20,5,4,0,14,3.5,6,Lc,0.27304761904761904,0.22366666666666665,0.2562,0.183,0.5,20,15,10,3,8
1,15,29,1,5,3.1109999999999975,12,18,40,71,67,105,5.001999999999996,10.796999999999992,0.5489999999999999,1.9519999999999986,17,19,4,6,24,51,4,7,5,0,15,3.75,6,Lc,0.20841666666666664,0.21170588235294116,0.13724999999999998,0.27885714285714286,0.5,20,15,10,3,8
1,15,30,1,10,1.8909999999999987,8,9,87,22,57,92,7.624999999999995,2.2569999999999983,3.4159999999999973,1.7689999999999988,20,8,9,4,30,11,15,8,3,0,16,4,6,Lc,0.25416666666666665,0.20518181818181816,0.2277333333333333,0.221125,0.5,20,15,10,3,8
1,16,31,1,8,2.744999999999998,10,11,114,68,62,70,10.796999999999992,3.476999999999997,1.2809999999999993,1.3419999999999992,20,13,4,9,44,19,4,11,2,0.5,26,3.5,6,Lc,0.2453863636363636,0.183,0.32025,0.122,0.5,20,15,10,3,8
1,16,32,1,2,2.439999999999998,12,15,58,5,4,1,11.77299999999999,0.5489999999999999,4.635999999999997,2.3789999999999982,20,5,11,9,49,5,17,10,4,0.5,40,5.5,6,Lc,0.24026530612244895,0.1098,0.27270588235294113,0.2379,0.5,20,15,10,3,8
1,17,33,1,10,1.3419999999999992,3,3,94,87,101,54,7.502999999999995,3.903999999999997,2.0739999999999985,0.183,19,9,11,2,41,13,15,2,3,0,12,3,6,Lc,0.183,0.3003076923076922,0.13826666666666668,0.0915,0.5,20,15,10,3,8
1,17,34,1,6,1.8909999999999987,6,7,2,5,8,61,3.049999999999998,8.722999999999994,0.122,0.8539999999999996,11,17,1,5,14,32,1,6,6,0.5,40,5.5,6,Lc,0.21785714285714286,0.27259374999999997,0.122,0.14233333333333334,0.5,20,15,10,3,8
1,18,35,1,6,1.0369999999999995,3,5,104,9,2,4,4.635999999999997,5.123999999999996,0.244,5.306999999999996,11,13,1,15,16,19,1,24,6,0.5,38,5,6,Lc,0.28974999999999995,0.26968421052631575,0.244,0.221125,0.5,20,15,10,3,8
1,18,36,1,3,1.9519999999999986,7,7,71,31,34,62,6.160999999999996,0.488,4.086999999999997,3.781999999999997,20,3,12,9,29,3,16,19,5,0,18,4.5,6,Lc,0.21244827586206894,0.16266666666666665,0.25543749999999993,0.19905263157894734,0.5,20,15,10,3,8
1,19,37,1,4,3.1109999999999975,10,15,45,98,43,102,9.332999999999993,0.427,6.099999999999995,0.6099999999999999,20,3,14,4,48,3,29,5,2,0,14,3.5,6,Lc,0.19443749999999999,0.14233333333333334,0.21034482758620687,0.122,0.5,20,15,10,3,8
1,19,38,1,8,2.0129999999999986,8,10,94,114,111,91,5.184999999999996,6.343999999999995,2.0739999999999985,1.3419999999999992,18,14,4,6,26,27,5,6,2,0,10,2.5,6,Lc,0.19942307692307693,0.23496296296296296,0.41479999999999995,0.22366666666666665,0.5,20,15,10,3,8
1,1,1,0,1,3.781999999999997,9,14,76,5,73,3,6.648999999999995,9.942999999999993,0.244,2.1349999999999985,20,17,2,4,33,57,2,4,3,0,18,4.5,6,Lc,0.20148484848484846,0.17443859649122806,0.122,0.53375,0.5,20,15,10,3,9
1,1,2,0,7,4.574999999999997,14,18,102,17,15,26,10.003999999999992,4.513999999999997,25.00999999999998,0.061,20,15,18,1,41,18,92,1,6,0,19,4.75,6,Lc,0.24399999999999997,0.25077777777777777,0.27184782608695646,0.061,0.5,20,15,10,3,9
1,2,3,0,2,3.1719999999999975,11,16,30,27,96,56,9.820999999999993,0.7319999999999998,1.0979999999999994,3.9649999999999967,20,1,6,10,35,1,6,16,4,0,17,4.25,6,Lc,0.28059999999999996,0.7319999999999998,0.183,0.24781249999999996,0.5,20,15,10,3,9
1,2,4,0,9,2.1349999999999985,9,11,66,68,4,106,8.844999999999994,4.818999999999996,2.500999999999998,0.427,20,13,8,3,38,21,10,3,4,0,16,4,6,Lc,0.2327631578947368,0.22947619047619044,0.25009999999999993,0.14233333333333334,0.5,20,15,10,3,9
1,3,5,0,8,5.855999999999995,14,34,119,33,96,114,7.502999999999995,4.7579999999999965,0.244,0.366,17,16,1,3,37,24,1,3,2,0,12,3,6,Lc,0.20278378378378376,0.19824999999999998,0.244,0.122,0.5,20,15,10,3,9
1,3,6,0,1,1.2199999999999993,4,5,76,106,77,105,4.086999999999997,3.2329999999999974,5.184999999999996,2.500999999999998,13,7,12,9,15,9,27,10,3,0,10,2.5,6,Lc,0.27246666666666663,0.35922222222222217,0.19203703703703703,0.25009999999999993,0.5,20,15,10,3,9
1,4,7,0,8,0.9149999999999996,3,3,113,114,118,57,3.049999999999998,6.587999999999995,0.366,0.7929999999999997,13,15,1,1,18,36,1,1,2,0.5,16,2.5,6,Lc,0.16944444444444443,0.183,0.366,0.7929999999999997,0.5,20,15,10,3,9
1,4,8,0,9,3.476999999999997,11,16,84,72,18,77,13.35899999999999,2.0739999999999985,1.1589999999999994,5.855999999999995,20,9,5,12,63,9,7,18,4,0,16,4,6,Lc,0.21204761904761904,0.23044444444444437,0.16557142857142856,0.32533333333333325,0.5,20,15,10,3,9
1,5,9,0,6,1.1589999999999994,4,4,96,91,30,71,14.334999999999988,0.6099999999999999,1.2199999999999993,0.122,20,4,5,1,65,4,5,1,6,0,15,3.75,6,Lc,0.22053846153846152,0.1525,0.244,0.122,0.5,20,15,10,3,9
1,5,10,0,5,3.1109999999999975,8,12,14,42,45,75,107.23800000000459,0.061,0.061,0.061,20,1,1,1,466,1,1,1,5,0,19,4.75,6,Lc,0.2301244635193133,0.061,0.061,0.061,0.5,20,15,10,3,9
1,6,11,1,7,4.025999999999997,12,19,24,61,40,21,6.648999999999996,2.2569999999999983,4.086999999999997,2.3789999999999982,17,9,11,8,24,10,19,10,6,0,21,5.25,6,Lc,0.27704166666666663,0.22569999999999998,0.21510526315789472,0.23789999999999997,0.5,20,15,10,3,9
1,6,12,1,2,1.0979999999999994,4,4,31,33,55,51,6.7099999999999955,4.147999999999997,0.305,1.1589999999999994,15,13,2,2,26,18,2,4,4,0,18,4.5,6,Lc,0.25807692307692304,0.23044444444444442,0.1525,0.28975,0.5,20,15,10,3,9
1,7,13,1,7,1.646999999999999,8,12,25,24,57,34,5.367999999999996,3.4159999999999973,4.940999999999996,1.463999999999999,17,11,14,7,28,14,22,8,6,0,20,5,6,Lc,0.1917142857142857,0.24399999999999997,0.22459090909090906,0.183,0.5,20,15,10,3,9
1,7,14,1,4,4.330999999999997,13,16,41,100,88,104,17.201999999999988,3.1109999999999975,1.8299999999999987,2.3789999999999982,20,8,7,4,77,13,7,6,2,0,12,3,6,Lc,0.22340259740259738,0.2393076923076923,0.2614285714285714,0.39649999999999996,0.5,20,15,10,3,9
1,8,15,1,9,2.3179999999999983,6,8,33,63,65,27,10.674999999999992,3.781999999999997,6.770999999999995,1.9519999999999986,20,9,15,7,36,12,30,8,4,0,18,4.5,6,Lc,0.2965277777777778,0.3151666666666666,0.22569999999999998,0.244,0.5,20,15,10,3,9
1,8,16,1,4,3.9649999999999967,10,16,104,53,86,93,17.994999999999987,1.7079999999999989,0.305,0.061,20,7,2,1,78,7,3,1,2,0,12,3,6,Lc,0.23070512820512817,0.2439999999999999,0.10166666666666667,0.061,0.5,20,15,10,3,9
1,9,17,1,7,2.683999999999998,10,12,72,68,22,61,5.7339999999999955,1.2199999999999993,3.3549999999999973,1.463999999999999,19,7,8,5,26,8,11,7,6,0.5,30,4.5,6,Lc,0.22053846153846152,0.1525,0.30499999999999994,0.20914285714285713,0.5,20,15,10,3,9
1,9,18,1,6,0.9149999999999996,3,3,5,31,10,3,4.818999999999996,2.500999999999998,0.488,9.576999999999993,15,10,3,15,22,11,3,33,6,0.5,41,5.75,6,Lc,0.21904545454545454,0.22736363636363635,0.16266666666666665,0.29021212121212114,0.5,20,15,10,3,9
1,10,19,1,3,2.0129999999999986,9,12,29,53,36,32,7.441999999999995,4.818999999999996,0.9149999999999996,0.9759999999999995,20,14,6,4,41,20,6,6,5,0.5,34,4.75,6,Lc,0.18151219512195121,0.24094999999999997,0.1525,0.16266666666666665,0.5,20,15,10,3,9
1,10,20,1,6,0.6709999999999998,2,3,2,11,71,9,1.5859999999999994,3.781999999999997,2.805999999999998,2.3789999999999982,5,10,6,9,6,18,7,12,6,0.5,40,5.5,6,Lc,0.2643333333333333,0.2101111111111111,0.4008571428571428,0.19824999999999998,0.5,20,15,10,3,9
1,11,21,1,1,0.9149999999999996,3,5,115,84,112,54,12.32199999999999,2.8669999999999978,3.2939999999999974,2.744999999999998,20,9,11,10,53,11,15,13,3,0,11,2.75,6,Lc,0.23249056603773582,0.2606363636363636,0.2196,0.21115384615384614,0.5,20,15,10,3,9
1,11,22,1,4,1.0979999999999994,4,5,14,87,89,102,92.78100000000315,0.061,0.061,0.061,20,1,1,1,359,1,1,1,2,0,14,3.5,6,Lc,0.25844289693593314,0.061,0.061,0.061,0.5,20,15,10,3,9
1,12,23,1,10,1.8909999999999987,6,8,87,68,38,44,11.589999999999991,5.123999999999996,0.7929999999999997,1.524999999999999,20,15,2,6,50,22,3,7,3,0,17,4.25,6,Lc,0.23179999999999998,0.23290909090909087,0.2643333333333333,0.21785714285714283,0.5,20,15,10,3,9
1,12,24,1,4,1.3419999999999992,4,5,107,56,59,31,7.624999999999995,4.452999999999997,2.0739999999999985,0.7929999999999997,19,10,9,6,27,18,10,7,2,0,15,3.75,6,Lc,0.2824074074074074,0.24738888888888882,0.2074,0.11328571428571428,0.5,20,15,10,3,9
1,13,25,1,7,3.1719999999999975,7,10,23,68,20,119,11.650999999999991,1.7689999999999988,0.6709999999999998,9.454999999999993,20,3,2,15,45,3,2,44,6,0,18,4.5,6,Lc,0.2589111111111111,0.5896666666666665,0.3355,0.21488636363636363,0.5,20,15,10,3,9
1,13,26,1,1,2.683999999999998,10,15,34,101,30,8,4.6969999999999965,2.9889999999999977,0.6099999999999999,7.624999999999994,17,8,2,13,22,13,2,31,3,0,18,4.5,6,Lc,0.2135,0.2299230769230769,0.305,0.24596774193548385,0.5,20,15,10,3,9
1,14,27,1,7,1.463999999999999,8,10,106,92,15,21,7.746999999999995,2.3789999999999982,0.5489999999999999,1.7689999999999988,20,8,2,6,32,11,2,8,6,0,17,4.25,6,Lc,0.24209374999999997,0.21627272727272726,0.27449999999999997,0.221125,0.5,20,15,10,3,9
1,14,28,1,8,4.635999999999997,12,20,36,26,72,65,10.430999999999992,1.1589999999999994,5.123999999999996,1.9519999999999986,20,6,13,6,52,7,16,6,2,0,18,4.5,6,Lc,0.20059615384615384,0.16557142857142856,0.32025,0.3253333333333333,0.5,20,15,10,3,9
1,15,29,1,5,1.7079999999999989,6,10,37,96,39,91,14.151999999999989,0.061,0.8539999999999996,0.7929999999999997,20,1,5,3,65,1,7,4,5,0,16,4,6,Lc,0.2177230769230769,0.061,0.122,0.19824999999999998,0.5,20,15,10,3,9
1,15,30,1,6,3.3549999999999973,6,10,12,120,35,30,8.539999999999994,4.879999999999996,0.366,0.9149999999999996,20,11,1,1,38,16,1,1,6,0,18,4.5,6,Lc,0.22473684210526312,0.305,0.366,0.9149999999999996,0.5,20,15,10,3,9
1,16,31,1,2,3.1109999999999975,9,14,87,53,47,57,6.404999999999995,2.439999999999998,3.537999999999997,4.269999999999997,17,6,11,11,26,7,16,15,4,0,16,4,6,Lc,0.2463461538461538,0.3485714285714285,0.221125,0.2846666666666667,0.5,20,15,10,3,9
1,16,32,1,9,3.903999999999997,13,24,6,62,81,28,14.090999999999989,2.3789999999999982,0.122,0.244,20,6,1,3,66,6,1,3,4,0,18,4.5,6,Lc,0.2135,0.39649999999999985,0.122,0.08133333333333333,0.5,20,15,10,3,9
1,17,33,1,2,2.9889999999999977,9,13,30,25,32,36,7.8079999999999945,2.0129999999999986,0.488,4.818999999999996,20,7,2,15,41,8,2,28,4,1,60,5,6,Lc,0.19043902439024388,0.251625,0.244,0.17210714285714285,0.5,20,15,10,3,9
1,17,34,1,5,1.646999999999999,7,8,15,107,77,99,40.93099999999997,0.061,0.061,0.366,20,1,1,1,169,1,1,1,5,0,13,3.25,6,Lc,0.24219526627218932,0.061,0.061,0.366,0.5,20,15,10,3,9
1,18,35,1,5,1.1589999999999994,4,4,41,57,90,43,5.733999999999996,4.086999999999997,0.7929999999999997,0.305,15,12,1,2,21,14,1,2,5,0,17,4.25,6,Lc,0.273047619047619,0.29192857142857137,0.7929999999999997,0.1525,0.5,20,15,10,3,9
1,18,36,1,9,1.9519999999999986,7,8,24,26,61,103,7.624999999999995,2.0739999999999985,0.061,1.0979999999999994,18,7,1,2,26,9,1,2,4,0,17,4.25,6,Lc,0.2932692307692307,0.23044444444444442,0.061,0.5489999999999999,0.5,20,15,10,3,9
1,1,1,0,5,2.9889999999999977,10,16,47,42,44,16,5.611999999999996,1.524999999999999,3.2329999999999974,10.979999999999992,17,3,10,16,30,4,14,51,5,0.5,36,5.25,6,Lc,0.18706666666666666,0.38124999999999987,0.2309285714285714,0.2152941176470588,0.5,20,15,10,3,10
1,1,2,0,3,3.903999999999997,13,23,108,99,12,5,13.968999999999989,0.061,0.183,1.524999999999999,20,1,3,7,60,1,3,10,5,0,16,4,6,Lc,0.23281666666666664,0.061,0.061,0.1525,0.5,20,15,10,3,10
1,2,3,0,8,2.9889999999999977,13,18,112,116,31,26,12.44399999999999,3.598999999999997,1.0979999999999994,3.2939999999999974,20,13,4,10,55,13,5,13,2,0,14,3.5,6,Lc,0.22625454545454543,0.2768461538461538,0.2196,0.2533846153846154,0.5,20,15,10,3,10
1,2,4,0,1,2.622999999999998,6,8,73,106,2,52,8.051999999999994,3.476999999999997,2.2569999999999983,1.524999999999999,20,7,7,9,27,8,8,11,3,0,15,3.75,6,Lc,0.2982222222222222,0.4346249999999999,0.28212499999999996,0.13863636363636364,0.5,20,15,10,3,10
1,3,5,0,1,2.622999999999998,9,13,82,15,79,81,18.177999999999987,2.3179999999999983,1.1589999999999994,0.6099999999999999,20,10,4,4,86,12,4,6,3,0.5,24,3.75,6,Lc,0.2113720930232558,0.19316666666666665,0.28974999999999995,0.10166666666666667,0.5,20,15,10,3,10
1,3,6,0,4,1.8909999999999987,5,6,103,96,102,1,6.282999999999996,9.698999999999993,3.2329999999999974,0.305,20,19,9,2,27,44,18,2,2,0,13,3.25,6,Lc,0.2327037037037037,0.22043181818181815,0.1796111111111111,0.1525,0.5,20,15,10,3,10
1,4,7,0,3,2.622999999999998,10,16,36,35,27,29,12.19999999999999,3.9649999999999967,0.183,5.123999999999996,20,14,1,12,55,19,1,19,5,1,60,5,6,Lc,0.2218181818181818,0.20868421052631578,0.183,0.26968421052631575,0.5,20,15,10,3,10
1,4,8,0,5,2.9889999999999977,13,19,38,48,52,43,8.966999999999993,2.1959999999999984,5.306999999999996,1.646999999999999,20,7,16,6,46,13,26,8,5,0.5,34,4.75,6,Lc,0.19493478260869565,0.16892307692307693,0.2041153846153846,0.20587499999999997,0.5,20,15,10,3,10
1,5,9,0,6,1.463999999999999,3,8,12,8,11,2,3.4769999999999976,17.262999999999987,4.086999999999997,1.463999999999999,11,18,14,5,19,75,25,7,6,1,72,6,6,Lc,0.183,0.2301733333333333,0.16348,0.20914285714285713,0.5,20,15,10,3,10
1,5,10,0,7,2.2569999999999983,8,12,23,32,104,17,6.221999999999995,8.356999999999994,0.6099999999999999,0.244,19,16,2,2,28,29,2,2,6,0,19,4.75,6,Lc,0.22221428571428567,0.28817241379310343,0.305,0.122,0.5,20,15,10,3,10
1,6,11,1,10,1.646999999999999,8,10,89,6,90,118,12.13899999999999,5.550999999999996,1.646999999999999,1.0369999999999995,20,14,9,3,54,24,11,3,3,0,14,3.5,6,Lc,0.22479629629629627,0.23129166666666665,0.14972727272727274,0.34566666666666657,0.5,20,15,10,3,10
1,6,12,1,1,1.8909999999999987,7,11,73,78,106,51,10.735999999999992,3.537999999999997,2.3789999999999982,0.7319999999999998,20,12,7,3,48,14,7,3,3,0,12,3,6,Lc,0.22366666666666665,0.25271428571428567,0.33985714285714286,0.244,0.5,20,15,10,3,10
1,7,13,1,2,2.683999999999998,7,11,79,118,57,117,16.774999999999988,2.1959999999999984,8.722999999999994,2.3789999999999982,20,6,17,7,64,6,31,9,4,0,11,2.75,6,Lc,0.262109375,0.36599999999999994,0.2813870967741935,0.2643333333333333,0.5,20,15,10,3,10
1,7,14,1,3,2.805999999999998,9,12,32,27,96,26,7.014999999999995,7.746999999999994,0.488,2.0129999999999986,20,16,3,9,30,34,3,12,5,0.5,33,4.5,6,Lc,0.2338333333333333,0.22785294117647056,0.16266666666666665,0.16775,0.5,20,15,10,3,10
1,8,15,1,7,1.524999999999999,6,10,14,84,24,73,3.110999999999998,2.3789999999999982,4.147999999999997,1.0369999999999995,15,6,12,6,20,7,16,6,6,0,18,4.5,6,Lc,0.15555,0.33985714285714275,0.25925,0.1728333333333333,0.5,20,15,10,3,10
1,8,16,1,10,2.1349999999999985,8,9,55,99,89,58,13.41999999999999,1.0369999999999995,1.4029999999999991,1.8299999999999987,20,5,4,11,60,5,5,14,3,0,13,3.25,6,Lc,0.22366666666666665,0.2074,0.28059999999999996,0.1307142857142857,0.5,20,15,10,3,10
1,9,17,1,3,0.7929999999999997,3,3,26,35,34,78,6.343999999999996,5.001999999999996,1.0979999999999994,1.524999999999999,20,13,6,5,27,18,8,6,5,0.5,33,4.5,6,Lc,0.23496296296296296,0.27788888888888885,0.13724999999999998,0.25416666666666665,0.5,20,15,10,3,10
1,9,18,1,5,2.2569999999999983,10,14,41,107,85,39,5.245999999999996,9.149999999999993,0.9149999999999996,0.244,19,17,5,1,26,43,6,1,5,0,15,3.75,6,Lc,0.20176923076923076,0.2127906976744186,0.1525,0.244,0.5,20,15,10,3,10
1,10,19,1,7,3.659999999999997,10,15,14,17,15,94,9.027999999999993,1.463999999999999,0.9759999999999995,0.6099999999999999,20,7,5,3,35,9,5,3,6,0.5,39,5.25,6,Lc,0.25794285714285714,0.16266666666666665,0.19519999999999998,0.20333333333333334,0.5,20,15,10,3,10
1,10,20,1,3,1.9519999999999986,8,9,35,28,26,34,7.685999999999995,2.622999999999998,3.720999999999997,2.2569999999999983,20,6,10,7,29,7,14,7,5,1,60,5,6,Lc,0.2650344827586207,0.37471428571428567,0.26578571428571424,0.3224285714285714,0.5,20,15,10,3,10
1,11,21,1,7,2.1959999999999984,11,15,17,14,20,23,3.5989999999999975,4.269999999999997,10.308999999999992,4.330999999999997,18,12,17,8,23,23,41,13,6,1,72,6,6,Lc,0.1564782608695652,0.18565217391304348,0.25143902439024385,0.33315384615384613,0.5,20,15,10,3,10
1,11,22,1,2,3.659999999999997,10,14,50,98,54,84,9.149999999999993,7.380999999999994,1.585999999999999,2.3789999999999982,20,16,8,7,39,28,8,10,4,0,13,3.25,6,Lc,0.23461538461538461,0.2636071428571428,0.19824999999999998,0.2379,0.5,20,15,10,3,10
1,12,23,1,10,2.0739999999999985,9,11,95,91,93,33,5.428999999999996,15.005999999999988,2.8669999999999978,7.075999999999994,19,18,10,13,24,57,14,37,3,0.5,23,3.5,6,Lc,0.22620833333333332,0.2632631578947368,0.20478571428571427,0.1912432432432432,0.5,20,15,10,3,10
1,12,24,1,1,3.1719999999999975,11,14,75,84,99,9,11.223999999999991,8.234999999999994,3.720999999999997,2.1349999999999985,20,18,13,8,37,35,20,9,3,0,14,3.5,6,Lc,0.30335135135135133,0.23528571428571426,0.18605,0.2372222222222222,0.5,20,15,10,3,10
1,13,25,1,8,1.4029999999999991,8,11,113,109,85,114,11.345999999999991,0.6099999999999999,0.7319999999999998,0.6709999999999998,20,3,3,1,61,3,3,1,2,0.5,15,2.25,6,Lc,0.18599999999999997,0.20333333333333334,0.244,0.6709999999999998,0.5,20,15,10,3,10
1,13,26,1,1,1.7689999999999988,5,8,101,75,104,107,12.13899999999999,1.9519999999999986,0.061,7.319999999999994,20,5,1,14,54,7,1,24,3,0.5,15,2.25,6,Lc,0.2247962962962963,0.27885714285714286,0.061,0.30499999999999994,0.5,20,15,10,3,10
1,14,27,1,7,1.4029999999999991,5,7,18,96,87,17,1.6469999999999991,1.9519999999999986,1.3419999999999992,7.136999999999994,6,8,4,13,8,11,6,27,6,0,18,4.5,6,Lc,0.205875,0.17745454545454545,0.22366666666666665,0.2643333333333333,0.5,20,15,10,3,10
1,14,28,1,5,3.1719999999999975,7,13,8,42,41,44,9.942999999999993,1.4029999999999991,3.4159999999999973,0.6709999999999998,20,5,12,3,38,7,16,3,5,0.5,36,5.25,6,Lc,0.26165789473684203,0.20042857142857143,0.2135,0.22366666666666665,0.5,20,15,10,3,10
1,15,29,1,9,1.463999999999999,5,8,69,70,65,47,9.149999999999993,3.537999999999997,1.4029999999999991,6.526999999999995,20,13,6,15,36,15,8,34,4,0.5,29,4.25,6,Lc,0.25416666666666665,0.23586666666666667,0.175375,0.19197058823529412,0.5,20,15,10,3,10
1,15,30,1,3,2.3179999999999983,11,14,94,54,29,51,10.674999999999992,0.7319999999999998,0.8539999999999996,1.585999999999999,20,4,3,7,52,4,3,9,5,0,16,4,6,Lc,0.20528846153846153,0.183,0.2846666666666667,0.17622222222222222,0.5,20,15,10,3,10
1,16,31,1,7,1.0369999999999995,5,5,13,85,16,49,10.186999999999992,0.061,2.0739999999999985,0.9149999999999996,20,1,8,3,48,1,9,4,6,0,19,4.75,6,Lc,0.21222916666666664,0.061,0.23044444444444442,0.22875,0.5,20,15,10,3,10
1,16,32,1,5,2.1959999999999984,10,13,42,46,82,81,15.676999999999987,2.805999999999998,1.1589999999999994,3.781999999999997,20,6,5,11,67,9,7,13,5,0,16,4,6,Lc,0.23398507462686566,0.3117777777777777,0.16557142857142856,0.2909230769230769,0.5,20,15,10,3,10
1,17,33,1,5,2.500999999999998,8,10,87,44,96,97,3.9039999999999973,7.990999999999993,5.123999999999996,0.122,11,15,10,1,13,35,13,1,5,0,13,3.25,6,Lc,0.3003076923076923,0.2283142857142857,0.3941538461538461,0.122,0.5,20,15,10,3,10
1,17,34,1,3,1.9519999999999986,8,12,28,58,25,34,5.245999999999996,1.3419999999999992,2.3179999999999983,1.7689999999999988,12,5,9,8,19,5,10,9,5,0.5,34,4.75,6,Lc,0.2761052631578947,0.26839999999999997,0.23179999999999998,0.19655555555555554,0.5,20,15,10,3,10
1,18,35,1,8,2.2569999999999983,6,10,114,111,84,83,5.489999999999996,3.2329999999999974,0.366,3.1719999999999975,17,8,1,11,30,13,1,15,2,0,10,2.5,6,Lc,0.183,0.24869230769230766,0.366,0.21146666666666666,0.5,20,15,10,3,10
1,18,36,1,2,2.622999999999998,12,15,59,95,57,91,6.160999999999995,2.622999999999998,5.489999999999996,2.8669999999999978,20,8,18,11,36,12,28,15,4,0,14,3.5,6,Lc,0.1711388888888889,0.21858333333333327,0.19607142857142856,0.1911333333333333,0.5,20,15,10,3,10
1,19,37,1,5,2.622999999999998,7,8,44,40,46,77,8.844999999999994,6.587999999999995,0.6099999999999999,3.1109999999999975,20,16,3,9,27,29,3,13,5,0.5,33,4.5,6,Lc,0.32759259259259255,0.2271724137931034,0.20333333333333334,0.23930769230769228,0.5,20,15,10,3,10
1,19,38,1,3,2.2569999999999983,10,11,96,16,31,85,11.162999999999991,4.025999999999997,0.061,0.8539999999999996,20,13,1,6,52,16,1,6,5,0,17,4.25,6,Lc,0.2146730769230769,0.251625,0.061,0.14233333333333334,0.5,20,15,10,3,10
1,1,1,0,8,4.7579999999999965,12,21,115,111,92,36,8.905999999999993,3.842999999999997,4.269999999999997,1.8299999999999987,20,13,12,5,40,14,19,6,2,0,12,3,6,Hc,0.22265,0.27449999999999997,0.22473684210526315,0.305,0.5,20,15,10,3,1
1,1,2,0,2,4.452999999999997,13,17,59,75,53,50,12.13899999999999,5.611999999999996,0.8539999999999996,5.001999999999996,20,17,3,11,50,27,3,18,4,0.5,15,3.75,6,Hc,0.24277999999999997,0.20785185185185184,0.2846666666666667,0.27788888888888885,0.5,20,15,10,3,1
1,2,3,0,2,2.622999999999998,9,11,15,26,29,56,18.543999999999986,1.9519999999999986,0.305,1.4029999999999991,20,7,2,4,78,7,2,6,4,0,20,5,6,Hc,0.23774358974358972,0.2788571428571428,0.1525,0.23383333333333334,0.5,20,15,10,3,1
1,2,4,0,6,2.0739999999999985,11,14,104,1,105,11,10.186999999999992,2.8669999999999978,2.3789999999999982,3.1719999999999975,20,9,7,9,58,10,11,12,6,0,16,4,6,Hc,0.17563793103448275,0.28669999999999995,0.21627272727272723,0.2643333333333333,0.5,20,15,10,3,1
1,3,5,0,9,2.3179999999999983,10,11,61,6,67,111,5.001999999999996,11.284999999999991,8.051999999999994,2.1959999999999984,18,17,16,11,23,46,37,13,4,0,16,4,6,Hc,0.2174782608695652,0.24532608695652172,0.2176216216216216,0.16892307692307693,0.5,20,15,10,3,1
1,3,6,0,5,4.391999999999997,12,19,46,42,52,102,11.89499999999999,1.2199999999999993,1.3419999999999992,2.439999999999998,20,3,4,8,44,3,5,10,5,0,16,4,6,Hc,0.2703409090909091,0.4066666666666665,0.26839999999999997,0.244,0.5,20,15,10,3,1
1,4,7,0,5,1.585999999999999,6,7,107,103,40,42,10.918999999999992,1.1589999999999994,0.122,0.7929999999999997,20,3,2,2,46,3,2,2,5,0,14,3.5,6,Hc,0.2373695652173913,0.3863333333333333,0.061,0.39649999999999996,0.5,20,15,10,3,1
1,4,8,0,8,2.9279999999999977,13,19,7,118,116,119,10.430999999999992,5.184999999999996,8.173999999999994,0.9759999999999995,20,12,16,5,45,21,30,6,2,0.5,12,3,6,Hc,0.23179999999999998,0.24690476190476188,0.27246666666666663,0.16266666666666665,0.5,20,15,10,3,1
1,5,9,0,10,1.646999999999999,6,8,91,93,108,102,7.8079999999999945,2.1959999999999984,6.221999999999995,2.1959999999999984,19,7,15,6,32,9,33,7,3,0,10,2.5,6,Hc,0.244,0.244,0.18854545454545452,0.31371428571428567,0.5,20,15,10,3,1
1,5,10,0,8,1.1589999999999994,5,6,115,111,109,119,9.942999999999993,4.025999999999997,2.1959999999999984,4.513999999999997,20,14,10,12,49,16,11,22,2,1,24,2,6,Hc,0.20291836734693877,0.251625,0.19963636363636364,0.2051818181818182,0.5,20,15,10,3,1
1,6,11,1,1,1.4029999999999991,6,7,77,81,76,101,2.5009999999999986,3.598999999999997,7.685999999999994,3.2939999999999974,10,13,14,10,13,20,28,13,3,0.5,11,2.75,6,Hc,0.19238461538461538,0.17995,0.27449999999999997,0.2533846153846154,0.5,20,15,10,3,1
1,6,12,1,9,0.9759999999999995,4,4,72,65,61,69,4.574999999999997,2.9889999999999977,7.075999999999994,2.622999999999998,12,11,15,8,15,15,37,12,4,1,48,4,6,Hc,0.305,0.19926666666666665,0.19124324324324324,0.21858333333333332,0.5,20,15,10,3,1
1,7,13,1,3,2.561999999999998,11,19,29,27,112,119,11.71199999999999,4.818999999999996,4.391999999999997,4.452999999999997,20,15,14,13,59,26,26,25,5,0,14,3.5,6,Hc,0.19850847457627116,0.18534615384615383,0.16892307692307693,0.17812,0.5,20,15,10,3,1
1,7,14,1,9,2.439999999999998,7,10,72,61,4,8,11.284999999999991,7.197999999999994,0.183,0.7319999999999998,20,17,1,3,49,26,1,3,4,0,20,5,6,Hc,0.23030612244897958,0.2768461538461538,0.183,0.24399999999999997,0.5,20,15,10,3,1
1,8,15,1,5,1.7689999999999988,9,12,37,62,46,40,10.003999999999992,1.7689999999999988,1.463999999999999,5.245999999999996,20,5,9,14,46,6,10,21,5,0.5,19,4.75,6,Hc,0.2174782608695652,0.2948333333333333,0.1464,0.2498095238095238,0.5,20,15,10,3,1
1,8,16,1,10,1.7079999999999989,4,5,58,92,96,98,5.672999999999996,0.305,5.977999999999995,2.1959999999999984,19,3,14,8,25,3,23,8,3,0,12,3,6,Hc,0.22691999999999996,0.10166666666666667,0.25991304347826083,0.27449999999999997,0.5,20,15,10,3,1
1,9,17,1,8,1.8909999999999987,8,9,117,109,112,3,9.454999999999993,0.8539999999999996,5.184999999999996,2.561999999999998,20,3,14,9,53,4,27,11,2,0.5,12,3,6,Hc,0.17839622641509434,0.2135,0.19203703703703703,0.2329090909090909,0.5,20,15,10,3,1
1,9,18,1,7,1.0979999999999994,3,4,23,15,102,17,4.147999999999997,4.269999999999997,0.5489999999999999,1.7689999999999988,13,8,1,9,21,13,1,10,6,0.5,20,5,6,Hc,0.19752380952380952,0.3284615384615384,0.5489999999999999,0.1769,0.5,20,15,10,3,1
1,10,19,1,3,1.9519999999999986,7,9,14,99,61,73,280.66100000001416,0.061,0.061,0.244,20,1,1,1,1155,1,1,1,5,0,15,3.75,6,Hc,0.2429965367965368,0.061,0.061,0.244,0.5,20,15,10,3,1
1,10,20,1,5,0.8539999999999996,4,4,60,42,55,40,4.879999999999997,2.9279999999999977,1.0979999999999994,0.6099999999999999,13,7,2,3,21,12,2,4,5,0,18,4.5,6,Hc,0.23238095238095235,0.24399999999999997,0.5489999999999998,0.1525,0.5,20,15,10,3,1
1,11,21,1,3,0.6099999999999999,5,5,32,27,54,50,1.8299999999999992,6.343999999999995,3.598999999999997,0.244,10,15,12,2,10,27,16,2,5,0,18,4.5,6,Hc,0.183,0.23496296296296296,0.22493749999999998,0.122,0.5,20,15,10,3,1
1,11,22,1,7,2.1959999999999984,9,12,21,14,102,20,4.391999999999997,10.796999999999992,3.2329999999999974,1.7079999999999989,13,19,10,7,18,45,12,8,6,0.5,20,5,6,Hc,0.24399999999999997,0.23993333333333333,0.26941666666666664,0.2135,0.5,20,15,10,3,1
1,12,23,1,4,2.0739999999999985,8,12,108,65,105,98,12.32199999999999,9.576999999999993,1.8299999999999987,2.744999999999998,20,19,8,8,57,41,12,9,2,0.5,10,2.5,6,Hc,0.21617543859649122,0.23358536585365852,0.1525,0.305,0.5,20,15,10,3,1
1,12,24,1,8,1.463999999999999,5,6,120,50,112,17,4.330999999999997,5.001999999999996,3.9649999999999967,0.488,13,13,10,4,17,21,20,4,2,0,14,3.5,6,Hc,0.25476470588235295,0.23819047619047612,0.19824999999999998,0.122,0.5,20,15,10,3,1
1,13,25,1,10,1.8299999999999987,6,9,88,87,86,94,5.001999999999996,2.0739999999999985,2.8669999999999978,6.465999999999995,13,7,9,14,18,9,11,40,3,1,36,3,6,Hc,0.27788888888888885,0.23044444444444445,0.2606363636363636,0.16165,0.5,20,15,10,3,1
1,13,26,1,3,1.2809999999999993,7,8,26,19,34,18,2.927999999999998,6.404999999999995,0.366,0.5489999999999999,12,13,2,3,13,29,2,3,5,0,22,5.5,6,Hc,0.2252307692307692,0.22086206896551724,0.183,0.183,0.5,20,15,10,3,1
1,14,27,1,8,0.9759999999999995,5,5,110,53,109,120,1.7689999999999992,5.977999999999995,1.524999999999999,7.319999999999994,6,13,6,16,6,21,7,37,2,0.5,10,2.5,6,Hc,0.2948333333333333,0.2846666666666666,0.21785714285714286,0.19783783783783784,0.5,20,15,10,3,1
1,14,28,1,9,1.8909999999999987,4,5,72,68,23,17,8.234999999999994,0.305,0.5489999999999999,2.1959999999999984,20,1,3,8,38,1,3,10,4,0,20,5,6,Hc,0.21671052631578946,0.305,0.183,0.21959999999999993,0.5,20,15,10,3,1
1,15,29,1,2,3.1109999999999975,12,18,53,115,12,60,13.23699999999999,9.088999999999993,6.953999999999994,0.061,20,15,17,1,68,38,28,1,4,0,16,4,6,Hc,0.19466176470588234,0.23918421052631578,0.24835714285714283,0.061,0.5,20,15,10,3,1
1,15,30,1,3,1.646999999999999,6,8,27,34,30,32,4.513999999999997,8.112999999999994,0.427,5.184999999999996,19,19,3,12,22,41,3,21,5,1,60,5,6,Hc,0.2051818181818182,0.1978780487804878,0.14233333333333334,0.24690476190476188,0.5,20,15,10,3,1
1,16,31,1,2,5.245999999999996,14,21,51,32,28,117,14.39599999999999,1.7689999999999988,18.055999999999987,0.061,20,3,18,1,60,4,76,1,4,0,16,4,6,Hc,0.2399333333333333,0.4422499999999999,0.23757894736842103,0.061,0.5,20,15,10,3,1
1,16,32,1,10,2.3789999999999982,7,11,89,88,87,3,7.502999999999995,1.1589999999999994,4.574999999999997,6.160999999999995,20,5,15,16,36,5,24,35,3,0.5,15,3.75,6,Hc,0.20841666666666667,0.2318,0.190625,0.17602857142857142,0.5,20,15,10,3,1
1,17,33,1,7,1.2809999999999993,5,6,24,36,85,33,6.099999999999996,5.7949999999999955,1.0369999999999995,1.463999999999999,16,15,2,4,20,25,4,5,6,0,19,4.75,6,Hc,0.30499999999999994,0.23179999999999998,0.25925,0.2928,0.5,20,15,10,3,1
1,17,34,1,8,3.0499999999999976,11,16,110,82,113,37,11.89499999999999,5.489999999999996,2.9889999999999977,5.184999999999996,20,9,11,13,58,14,14,21,2,0,12,3,6,Hc,0.20508620689655171,0.392142857142857,0.2135,0.24690476190476188,0.5,20,15,10,3,1
1,1,1,0,10,5.428999999999996,14,26,98,57,87,88,15.676999999999989,2.500999999999998,4.269999999999997,0.488,20,9,12,3,66,10,19,3,3,0,12,3,6,Hc,0.237530303030303,0.2501,0.22473684210526315,0.16266666666666665,0.5,20,15,10,3,2
1,1,2,0,3,1.524999999999999,6,6,26,5,34,73,8.051999999999994,5.062999999999996,7.319999999999994,4.147999999999997,20,16,18,14,34,27,34,19,5,0,19,4.75,6,Hc,0.23682352941176468,0.1875185185185185,0.2152941176470588,0.2183157894736842,0.5,20,15,10,3,2
1,2,3,0,3,2.1959999999999984,6,8,23,99,26,21,11.89499999999999,5.7339999999999955,0.488,4.208999999999997,20,15,3,12,46,25,3,20,5,0,19,4.75,6,Hc,0.25858695652173913,0.22935999999999998,0.16266666666666665,0.21044999999999997,0.5,20,15,10,3,2
1,2,4,0,5,1.3419999999999992,5,6,38,89,42,11,11.589999999999991,2.9279999999999977,2.561999999999998,0.8539999999999996,20,7,9,3,51,9,14,3,5,0,19,4.75,6,Hc,0.2272549019607843,0.32533333333333325,0.183,0.2846666666666666,0.5,20,15,10,3,2
1,3,5,0,4,3.842999999999997,10,15,107,26,102,22,11.040999999999991,1.585999999999999,1.463999999999999,0.9759999999999995,20,5,7,3,44,6,9,3,2,0,15,3.75,6,Hc,0.25093181818181814,0.26433333333333325,0.16266666666666665,0.3253333333333333,0.5,20,15,10,3,2
1,3,6,0,8,1.3419999999999992,5,6,7,117,112,110,9.759999999999993,1.1589999999999994,4.879999999999996,4.025999999999997,20,5,14,14,45,6,23,23,2,0.5,12,3,6,Hc,0.21688888888888888,0.19316666666666665,0.21217391304347824,0.17504347826086955,0.5,20,15,10,3,2
1,4,7,0,5,1.2809999999999993,3,3,88,48,1,46,9.759999999999993,0.366,2.0739999999999985,1.7689999999999988,20,1,7,6,40,1,8,7,5,0,19,4.75,6,Hc,0.24399999999999997,0.366,0.25925,0.2527142857142857,0.5,20,15,10,3,2
1,4,8,0,7,3.781999999999997,11,19,15,31,36,54,15.371999999999987,3.659999999999997,0.244,1.7079999999999989,20,9,2,4,70,11,2,4,6,0,20,5,6,Hc,0.2196,0.3327272727272727,0.122,0.4269999999999999,0.5,20,15,10,3,2
1,5,9,0,8,3.659999999999997,10,14,18,117,17,28,13.05399999999999,0.5489999999999999,2.1349999999999985,3.4159999999999973,20,3,7,12,58,3,8,18,2,0,19,4.75,6,Hc,0.22506896551724137,0.183,0.266875,0.18977777777777777,0.5,20,15,10,3,2
1,5,10,0,1,1.585999999999999,6,7,78,107,103,81,8.051999999999994,4.269999999999997,3.537999999999997,1.1589999999999994,19,12,10,4,31,17,13,5,3,0,10,2.5,6,Hc,0.2597419354838709,0.2511764705882353,0.27215384615384614,0.2318,0.5,20,15,10,3,2
1,6,11,1,7,1.463999999999999,7,8,23,18,31,14,8.600999999999994,2.500999999999998,3.3549999999999973,8.722999999999994,20,7,9,15,36,8,14,43,6,0.5,23,5.75,6,Hc,0.23891666666666664,0.312625,0.2396428571428571,0.20286046511627906,0.5,20,15,10,3,2
1,6,12,1,5,3.720999999999997,11,23,58,11,1,37,12.87099999999999,0.061,2.2569999999999983,0.183,20,1,6,1,62,1,7,1,5,0,21,5.25,6,Hc,0.20759677419354838,0.061,0.32242857142857134,0.183,0.5,20,15,10,3,2
1,7,13,1,3,0.427,2,2,27,35,92,98,8.661999999999994,2.2569999999999983,5.123999999999996,1.8299999999999987,20,8,14,5,34,11,21,5,5,0,15,3.75,6,Hc,0.2547647058823529,0.2051818181818182,0.244,0.36599999999999994,0.5,20,15,10,3,2
1,7,14,1,8,2.805999999999998,9,14,118,115,58,50,5.001999999999996,4.879999999999996,0.244,1.524999999999999,16,15,1,3,24,26,1,3,2,0,12,3,6,Hc,0.20841666666666667,0.18769230769230769,0.244,0.5083333333333333,0.5,20,15,10,3,2
1,8,15,1,9,0.9759999999999995,4,5,62,68,108,70,7.746999999999995,3.1719999999999975,3.659999999999997,1.8909999999999987,20,10,10,8,36,13,17,8,4,0.5,14,3.5,6,Hc,0.21519444444444444,0.24399999999999997,0.21529411764705883,0.23637499999999997,0.5,20,15,10,3,2
1,8,16,1,5,2.3789999999999982,6,8,13,114,112,51,73.62700000000079,0.061,0.061,0.061,20,1,1,1,325,1,1,1,5,0,14,3.5,6,Hc,0.22654461538461537,0.061,0.061,0.061,0.5,20,15,10,3,2
1,9,17,1,1,1.8909999999999987,10,11,84,57,80,53,6.587999999999996,3.1719999999999975,1.585999999999999,4.452999999999997,20,7,8,10,29,8,8,18,3,0,14,3.5,6,Hc,0.22717241379310343,0.39649999999999996,0.19824999999999998,0.24738888888888888,0.5,20,15,10,3,2
1,9,18,1,10,3.0499999999999976,9,16,89,90,101,86,6.160999999999995,7.685999999999994,3.0499999999999976,3.2939999999999974,18,18,15,11,28,42,20,16,3,0.5,11,2.75,6,Hc,0.22003571428571425,0.183,0.1525,0.205875,0.5,20,15,10,3,2
1,10,19,1,6,4.818999999999996,13,26,43,10,11,8,12.01699999999999,0.488,6.465999999999995,0.6709999999999998,20,1,15,3,75,1,34,3,6,0.5,23,5.75,6,Hc,0.16022666666666666,0.488,0.19017647058823528,0.22366666666666665,0.5,20,15,10,3,2
1,10,20,1,10,0.9149999999999996,2,2,13,116,49,27,86.55900000000246,0.244,0.061,0.122,20,2,1,2,339,2,1,2,3,0,17,4.25,6,Hc,0.2553362831858407,0.122,0.061,0.061,0.5,20,15,10,3,2
1,11,21,1,10,4.147999999999997,12,22,103,93,105,15,8.905999999999993,5.7339999999999955,4.6969999999999965,3.4159999999999973,20,14,16,9,35,19,24,13,3,0,13,3.25,6,Hc,0.2544571428571428,0.3017894736842105,0.19570833333333332,0.26276923076923075,0.5,20,15,10,3,2
1,11,22,1,8,2.0129999999999986,9,9,115,75,59,48,3.5379999999999976,8.234999999999994,0.366,0.244,14,16,2,2,17,39,2,2,2,0,14,3.5,6,Hc,0.20811764705882352,0.21115384615384614,0.183,0.122,0.5,20,15,10,3,2
1,12,23,1,9,1.1589999999999994,4,5,103,104,78,62,5.062999999999996,6.343999999999995,1.0369999999999995,0.305,16,14,2,3,24,23,3,3,4,0,11,2.75,6,Hc,0.21095833333333333,0.27582608695652167,0.3456666666666666,0.10166666666666667,0.5,20,15,10,3,2
1,12,24,1,10,3.598999999999997,12,21,95,115,110,118,9.149999999999993,9.942999999999993,0.5489999999999999,3.2329999999999974,20,16,3,12,48,38,3,19,3,0.5,9,2.25,6,Hc,0.190625,0.2616578947368421,0.183,0.1701578947368421,0.5,20,15,10,3,2
1,13,25,1,10,1.7079999999999989,6,6,3,67,61,85,65.33099999999995,0.061,0.061,0.244,20,1,1,2,260,1,1,2,3,0,17,4.25,6,Hc,0.2512730769230769,0.061,0.061,0.122,0.5,20,15,10,3,2
1,13,26,1,1,2.0739999999999985,7,8,14,77,98,106,135.603000000008,0.061,0.122,0.061,20,1,2,1,551,1,2,1,3,0,13,3.25,6,Hc,0.24610344827586203,0.061,0.061,0.061,0.5,20,15,10,3,2
1,14,27,1,3,4.574999999999997,15,26,25,71,33,83,6.587999999999996,5.611999999999996,0.5489999999999999,1.2199999999999993,20,13,3,3,34,23,3,3,5,0,17,4.25,6,Hc,0.19376470588235292,0.24399999999999997,0.183,0.4066666666666666,0.5,20,15,10,3,2
1,14,28,1,5,2.1959999999999984,9,10,39,15,14,48,5.062999999999996,7.990999999999993,1.0979999999999994,2.439999999999998,16,14,2,10,17,34,3,12,5,0,22,5.5,6,Hc,0.29782352941176465,0.23502941176470588,0.36599999999999994,0.2033333333333333,0.5,20,15,10,3,2
