Subject,Round,Phase,afterbreak,Schema,Schema_RT,Schema_OB,Schema_AS,Cho_1,Cho_2,Cho_3,Cho_4,RT_1,RT_2,RT_3,RT_4,OB_1,OB_2,OB_3,OB_4,AS_1,AS_2,AS_3,AS_4,schema_payoff,AC,performance,payoff,breakR,type,dwellmean_1,dwellmean_2,dwellmean_3,dwellmean_4,param_w,param_Phi,param_thres_item_final,param_thres_schema,param_theta_shift,rep
1,1,1,0,9,11.528999999999991,18,59,36,65,69,34,12.99299999999999,4.086999999999997,2.3179999999999983,0.9759999999999995,19,14,8,5,60,19,8,6,4,0,18,4.5,6,Lc,0.21655,0.21510526315789472,0.28975,0.16266666666666668,0.1,20,15,30,3,1
1,1,2,0,1,9.393999999999993,16,36,75,84,81,53,15.49399999999999,1.7079999999999989,1.2199999999999993,1.585999999999999,20,6,5,6,66,7,6,6,3,0.5,22,3.25,6,Lc,0.23475757575757575,0.24399999999999997,0.20333333333333334,0.2643333333333333,0.1,20,15,30,3,1
1,2,3,0,6,13.29799999999999,17,61,107,7,4,106,19.702999999999985,0.6709999999999998,3.2329999999999974,8.295999999999994,20,3,7,17,85,3,9,40,6,0,16,4,6,Lc,0.23179999999999998,0.22366666666666665,0.35922222222222217,0.2074,0.1,20,15,30,3,1
1,2,4,0,9,8.966999999999993,17,43,61,69,72,32,9.027999999999993,3.2329999999999974,5.428999999999996,3.537999999999997,18,8,14,11,44,9,22,18,4,0.5,29,4.25,6,Lc,0.20518181818181816,0.35922222222222217,0.24677272727272723,0.19655555555555554,0.1,20,15,30,3,1
1,3,5,0,3,10.918999999999992,18,54,35,28,16,78,14.395999999999988,1.8909999999999987,3.1719999999999975,4.086999999999997,20,3,11,10,63,6,15,18,5,0,19,4.75,6,Lc,0.2285079365079365,0.3151666666666666,0.21146666666666666,0.22705555555555554,0.1,20,15,30,3,1
1,3,6,0,5,8.966999999999993,13,32,46,43,41,4,9.759999999999993,1.2809999999999993,4.6969999999999965,5.367999999999996,15,3,13,15,34,4,22,19,5,0.5,36,5.25,6,Lc,0.28705882352941176,0.32025,0.2135,0.2825263157894737,0.1,20,15,30,3,1
1,4,7,0,5,9.393999999999993,16,39,37,80,45,39,13.23699999999999,0.5489999999999999,2.3789999999999982,1.524999999999999,20,1,8,5,53,1,10,6,5,0.5,33,4.5,6,Lc,0.24975471698113202,0.5489999999999999,0.2379,0.25416666666666665,0.1,20,15,30,3,1
1,4,8,0,9,9.454999999999993,17,45,64,69,2,88,10.491999999999992,8.844999999999994,14.273999999999988,3.1719999999999975,19,18,17,12,47,34,64,16,4,0,17,4.25,6,Lc,0.22323404255319146,0.2601470588235294,0.22303125,0.19824999999999998,0.1,20,15,30,3,1
1,5,9,0,2,11.89499999999999,19,60,50,53,54,5,16.34799999999999,2.1959999999999984,2.561999999999998,3.842999999999997,20,10,11,9,79,14,12,11,4,0.5,30,4.5,6,Lc,0.2069367088607595,0.15685714285714286,0.2135,0.3493636363636363,0.1,20,15,30,3,1
1,5,10,0,7,6.8319999999999945,14,29,16,22,18,81,10.491999999999992,0.6099999999999999,1.0369999999999995,2.8669999999999978,20,2,2,8,46,2,2,12,6,0.5,39,5.25,6,Lc,0.2280869565217391,0.305,0.5184999999999997,0.23891666666666664,0.1,20,15,30,3,1
1,6,11,1,7,12.07799999999999,20,75,20,21,17,47,19.092999999999986,2.439999999999998,3.903999999999997,2.744999999999998,20,10,15,9,107,14,23,18,6,0.5,41,5.75,6,Lc,0.17843925233644858,0.17428571428571427,0.16973913043478261,0.1525,0.1,20,15,30,3,1
1,6,12,1,3,9.271999999999993,16,53,25,27,107,32,19.763999999999985,6.221999999999995,1.524999999999999,0.5489999999999999,20,14,6,4,98,24,7,4,5,0.5,32,4.25,6,Lc,0.2016734693877551,0.25925,0.2178571428571428,0.13724999999999998,0.1,20,15,30,3,1
1,7,13,1,9,4.635999999999997,13,21,70,73,68,71,7.380999999999995,4.940999999999996,1.646999999999999,2.3179999999999983,20,14,8,10,35,18,9,12,4,0.5,27,3.75,6,Lc,0.21088571428571426,0.27449999999999997,0.183,0.19316666666666665,0.1,20,15,30,3,1
1,7,14,1,8,4.513999999999997,12,23,2,51,44,8,63.74499999999995,0.061,0.061,0.122,20,1,1,2,262,1,1,2,2,0,21,5.25,6,Lc,0.24330152671755723,0.061,0.061,0.061,0.1,20,15,30,3,1
1,8,15,1,3,10.674999999999992,20,56,28,27,30,10,16.713999999999988,0.122,2.0129999999999986,1.585999999999999,20,1,9,5,83,1,12,5,5,0.5,36,5.25,6,Lc,0.20137349397590362,0.122,0.16774999999999998,0.3171999999999999,0.1,20,15,30,3,1
1,8,16,1,9,10.796999999999992,19,62,95,66,63,67,13.54199999999999,0.366,0.9149999999999996,1.646999999999999,20,1,6,6,71,1,6,9,4,0.5,27,3.75,6,Lc,0.19073239436619718,0.366,0.1525,0.183,0.1,20,15,30,3,1
1,9,17,1,7,12.56599999999999,14,53,19,16,15,21,12.99299999999999,7.014999999999994,2.2569999999999983,4.452999999999997,16,17,10,13,55,33,11,21,6,1,72,6,6,Lc,0.2362363636363636,0.21257575757575756,0.2051818181818182,0.21204761904761904,0.1,20,15,30,3,1
1,9,18,1,3,8.112999999999994,14,35,31,92,25,35,10.613999999999992,1.7689999999999988,0.183,5.489999999999996,20,8,3,16,48,11,3,27,5,0.5,33,4.5,6,Lc,0.22112499999999996,0.1608181818181818,0.061,0.20333333333333334,0.1,20,15,30,3,1
1,10,19,1,5,10.430999999999992,18,48,48,47,94,46,12.26099999999999,6.343999999999995,1.3419999999999992,3.2329999999999974,20,15,4,10,56,28,4,16,5,0.5,33,4.5,6,Lc,0.21894642857142857,0.22657142857142856,0.33549999999999996,0.2020625,0.1,20,15,30,3,1
1,10,20,1,4,9.820999999999993,15,49,104,98,97,1,9.881999999999993,6.709999999999995,2.500999999999998,1.524999999999999,16,15,8,5,50,32,10,6,2,0.5,18,3,6,Lc,0.19764,0.2096875,0.2501,0.25416666666666665,0.1,20,15,30,3,1
1,11,21,1,3,5.977999999999995,14,31,27,104,29,79,9.271999999999993,2.683999999999998,2.805999999999998,12.93199999999999,20,10,8,17,41,12,8,62,5,0,15,3.75,6,Lc,0.2261463414634146,0.22366666666666665,0.3507499999999999,0.2085806451612903,0.1,20,15,30,3,1
1,11,22,1,5,7.990999999999993,13,43,46,37,4,40,12.80999999999999,1.4029999999999991,4.940999999999996,1.0979999999999994,20,5,14,4,59,6,20,5,5,0.5,36,5.25,6,Lc,0.21711864406779657,0.23383333333333334,0.24704999999999996,0.21959999999999993,0.1,20,15,30,3,1
1,12,23,1,4,10.308999999999992,17,51,108,102,103,89,15.920999999999989,0.244,1.8909999999999987,9.759999999999993,20,2,8,16,77,2,8,36,2,0.5,15,2.25,6,Lc,0.20676623376623374,0.122,0.236375,0.2711111111111111,0.1,20,15,30,3,1
1,12,24,1,3,7.990999999999993,17,40,3,32,30,27,37.63699999999997,0.061,0.061,0.122,20,1,1,1,162,1,1,1,5,0.5,36,5.25,6,Lc,0.23232716049382715,0.061,0.061,0.122,0.1,20,15,30,3,1
1,13,25,1,7,7.380999999999994,18,32,13,21,18,17,14.578999999999988,0.427,0.488,9.210999999999993,20,3,2,13,57,3,2,31,6,1,72,6,6,Lc,0.2557719298245614,0.14233333333333334,0.244,0.2971290322580644,0.1,20,15,30,3,1
1,13,26,1,1,8.661999999999994,10,41,73,9,5,3,12.26099999999999,0.183,7.014999999999994,3.0499999999999976,20,1,13,12,57,1,24,16,3,0.5,39,5.25,6,Lc,0.21510526315789472,0.183,0.2922916666666666,0.190625,0.1,20,15,30,3,1
1,14,27,1,5,5.001999999999996,10,23,37,45,43,99,6.465999999999996,0.366,5.367999999999996,7.380999999999994,18,3,13,13,32,3,25,34,5,0.5,32,4.25,6,Lc,0.20206249999999998,0.122,0.21472,0.21708823529411764,0.1,20,15,30,3,1
1,14,28,1,3,7.380999999999994,11,35,27,36,119,1,9.210999999999993,8.844999999999994,4.452999999999997,0.183,18,15,10,1,42,33,16,1,5,0,18,4.5,6,Lc,0.2193095238095238,0.268030303030303,0.27831249999999996,0.183,0.1,20,15,30,3,1
1,15,29,1,2,13.48099999999999,20,56,57,54,50,10,15.188999999999988,3.537999999999997,3.903999999999997,8.173999999999994,20,13,11,14,62,17,26,28,4,0.5,30,4.5,6,Lc,0.24498387096774193,0.2081176470588235,0.15015384615384614,0.29192857142857137,0.1,20,15,30,3,1
1,15,30,1,7,5.489999999999996,9,26,16,24,113,72,10.491999999999992,0.7319999999999998,2.8669999999999978,9.210999999999993,20,3,10,17,45,4,15,41,6,0,18,4.5,6,Lc,0.23315555555555553,0.183,0.19113333333333332,0.22465853658536583,0.1,20,15,30,3,1
1,16,31,1,3,7.8689999999999936,13,47,33,26,34,109,8.844999999999994,0.7319999999999998,2.683999999999998,4.025999999999997,18,4,12,11,53,4,18,21,5,0.5,32,4.25,6,Lc,0.16688679245283017,0.183,0.14911111111111108,0.1917142857142857,0.1,20,15,30,3,1
1,16,32,1,4,3.903999999999997,11,20,3,99,98,42,36.90499999999997,0.366,0.305,0.5489999999999999,20,2,2,4,165,2,2,5,2,0,15,3.75,6,Lc,0.22366666666666665,0.183,0.1525,0.1098,0.1,20,15,30,3,1
1,17,33,1,5,11.528999999999991,17,53,46,119,48,1,14.517999999999988,1.1589999999999994,0.427,10.125999999999992,20,5,3,16,67,5,3,42,5,0,18,4.5,6,Lc,0.21668656716417908,0.2318,0.14233333333333334,0.24109523809523808,0.1,20,15,30,3,1
1,17,34,1,7,11.406999999999991,18,55,24,22,102,62,12.44399999999999,2.0739999999999985,6.343999999999995,6.8929999999999945,20,11,14,15,59,14,25,39,6,0,18,4.5,6,Lc,0.21091525423728813,0.14814285714285713,0.25376,0.17674358974358972,0.1,20,15,30,3,1
1,18,35,1,2,8.661999999999994,12,40,55,51,35,7,13.358999999999991,0.9149999999999996,0.183,1.8299999999999987,20,3,1,3,61,3,1,3,4,0,19,4.75,6,Lc,0.219,0.305,0.183,0.6099999999999998,0.1,20,15,30,3,1
1,18,36,1,5,11.89499999999999,19,67,40,38,13,21,17.750999999999987,12.87099999999999,6.648999999999995,15.310999999999988,20,15,16,17,81,51,29,68,5,0,22,5.5,6,Lc,0.21914814814814812,0.2523725490196078,0.2292758620689655,0.22516176470588234,0.1,20,15,30,3,1
1,1,1,0,2,13.41999999999999,17,57,90,88,102,98,30.25599999999998,0.5489999999999999,1.3419999999999992,0.9759999999999995,20,5,4,5,131,5,5,6,4,0,10,2.5,6,Lc,0.23096183206106868,0.1098,0.26839999999999997,0.16266666666666665,0.1,20,15,30,3,2
1,1,2,0,1,12.38299999999999,18,71,81,33,78,75,17.201999999999988,2.9279999999999977,0.488,0.061,20,9,2,1,86,10,2,1,3,0.5,23,3.5,6,Lc,0.2000232558139535,0.2927999999999999,0.244,0.061,0.1,20,15,30,3,2
1,2,3,0,9,7.8689999999999936,18,36,62,66,63,98,10.186999999999992,0.122,0.8539999999999996,6.587999999999995,20,1,3,13,48,1,3,30,4,0.5,26,3.5,6,Lc,0.21222916666666666,0.122,0.2846666666666667,0.2196,0.1,20,15,30,3,2
1,2,4,0,2,7.014999999999994,14,33,55,85,114,88,36.41699999999997,6.099999999999995,0.244,0.5489999999999999,20,17,2,2,143,29,2,2,4,0,12,3,6,Lc,0.2546643356643356,0.21034482758620687,0.122,0.27449999999999997,0.1,20,15,30,3,2
1,3,5,0,6,8.966999999999993,17,54,4,1,2,5,11.528999999999991,1.8909999999999987,14.639999999999988,1.1589999999999994,20,7,16,4,66,7,55,4,6,1,72,6,6,Lc,0.1746818181818182,0.27014285714285713,0.26618181818181813,0.28975,0.1,20,15,30,3,2
1,3,6,0,3,4.6969999999999965,13,21,14,85,100,88,48.49499999999996,0.305,0.061,0.122,20,2,1,1,189,2,1,1,5,0,14,3.5,6,Lc,0.25658730158730153,0.1525,0.061,0.122,0.1,20,15,30,3,2
1,4,7,0,6,7.807999999999994,12,35,8,11,2,7,8.417999999999994,1.7689999999999988,5.550999999999996,2.9889999999999977,15,7,9,8,38,7,20,12,6,1,72,6,6,Lc,0.22152631578947365,0.2527142857142857,0.27754999999999996,0.2490833333333333,0.1,20,15,30,3,2
1,4,8,0,7,13.907999999999989,18,77,13,19,15,105,18.543999999999986,6.282999999999995,0.6099999999999999,0.7319999999999998,20,14,2,3,97,28,2,3,6,0.5,38,5,6,Lc,0.19117525773195876,0.22439285714285714,0.305,0.244,0.1,20,15,30,3,2
1,5,9,0,3,9.210999999999993,17,47,33,110,70,115,11.406999999999991,9.271999999999993,29.401999999999976,2.0739999999999985,20,16,18,6,57,31,118,6,5,0,13,3.25,6,Lc,0.20012280701754384,0.29909677419354835,0.2491694915254237,0.34566666666666657,0.1,20,15,30,3,2
1,5,10,0,2,10.064999999999992,18,56,57,59,107,96,12.87099999999999,5.184999999999996,0.9149999999999996,1.7689999999999988,20,15,5,7,67,25,6,9,4,0,13,3.25,6,Lc,0.1921044776119403,0.2074,0.1525,0.19655555555555554,0.1,20,15,30,3,2
1,6,11,1,3,11.345999999999991,18,50,34,26,18,49,15.737999999999989,4.940999999999996,12.13899999999999,0.183,20,12,18,1,73,25,53,1,5,0,20,5,6,Lc,0.2155890410958904,0.19764,0.22903773584905657,0.183,0.1,20,15,30,3,2
1,6,12,1,6,3.781999999999997,12,22,3,9,5,6,8.783999999999994,0.488,0.061,1.1589999999999994,20,3,1,5,39,3,1,6,6,1,72,6,6,Lc,0.2252307692307692,0.16266666666666665,0.061,0.19316666666666668,0.1,20,15,30,3,2
1,7,13,1,9,10.979999999999992,19,63,67,69,65,27,17.140999999999988,1.2199999999999993,3.781999999999997,4.452999999999997,20,6,12,12,86,6,16,19,4,0.5,29,4.25,6,Lc,0.19931395348837208,0.20333333333333334,0.236375,0.23436842105263156,0.1,20,15,30,3,2
1,7,14,1,7,16.40899999999999,13,88,18,21,17,20,17.445999999999987,4.635999999999997,1.3419999999999992,8.051999999999994,18,11,6,16,93,22,8,45,6,1,72,6,6,Lc,0.18759139784946235,0.2107272727272727,0.16775,0.17893333333333333,0.1,20,15,30,3,2
1,8,15,1,7,10.552999999999992,12,48,24,32,17,16,12.19999999999999,4.269999999999997,3.2329999999999974,1.2809999999999993,19,12,9,6,57,21,15,7,6,0.5,41,5.75,6,Lc,0.21403508771929822,0.2033333333333333,0.21553333333333333,0.183,0.1,20,15,30,3,2
1,8,16,1,10,7.014999999999994,19,33,89,96,99,98,18.482999999999986,0.122,7.014999999999994,14.517999999999988,20,2,17,17,80,2,31,60,3,0,10,2.5,6,Lc,0.23103749999999998,0.061,0.22629032258064516,0.24196666666666664,0.1,20,15,30,3,2
1,9,17,1,10,5.916999999999995,12,19,16,89,60,109,65.39199999999995,0.061,0.6709999999999998,0.5489999999999999,20,1,1,2,258,1,1,2,3,0,15,3.75,6,Lc,0.25345736434108523,0.061,0.6709999999999998,0.27449999999999997,0.1,20,15,30,3,2
1,9,18,1,5,8.600999999999994,15,45,38,103,37,40,10.125999999999992,1.0979999999999994,3.659999999999997,2.805999999999998,19,5,9,7,50,5,17,12,5,0.5,32,4.25,6,Lc,0.20251999999999998,0.2196,0.2152941176470588,0.2338333333333333,0.1,20,15,30,3,2
1,10,19,1,10,9.576999999999993,18,47,89,85,113,41,10.064999999999992,24.15599999999998,6.8319999999999945,6.343999999999995,19,19,16,13,48,110,35,28,3,0,13,3.25,6,Lc,0.20968749999999997,0.2196,0.19519999999999998,0.22657142857142856,0.1,20,15,30,3,2
1,10,20,1,7,6.709999999999995,13,30,16,21,24,103,16.40899999999999,0.366,1.524999999999999,8.722999999999994,20,2,6,15,60,2,8,30,6,0.5,38,5,6,Lc,0.2734833333333333,0.183,0.190625,0.2907666666666666,0.1,20,15,30,3,2
1,11,21,1,6,13.17599999999999,18,56,8,3,2,4,15.737999999999987,1.646999999999999,9.088999999999993,2.500999999999998,20,7,17,7,72,7,44,10,6,1,72,6,6,Lc,0.21858333333333332,0.23528571428571424,0.20656818181818182,0.2501,0.1,20,15,30,3,2
1,11,22,1,1,6.404999999999995,13,32,79,73,76,84,7.502999999999995,4.208999999999997,4.513999999999997,4.086999999999997,17,14,13,11,36,20,20,15,3,1,36,3,6,Lc,0.20841666666666667,0.21045,0.22569999999999996,0.27246666666666663,0.1,20,15,30,3,2
1,12,23,1,3,10.552999999999992,15,54,33,28,26,32,11.650999999999991,1.7689999999999988,1.4029999999999991,4.879999999999996,20,9,6,10,60,11,7,18,5,1,60,5,6,Lc,0.19418333333333332,0.1608181818181818,0.20042857142857143,0.2711111111111111,0.1,20,15,30,3,2
1,12,24,1,9,3.598999999999997,12,18,16,117,112,70,101.44300000000386,0.061,0.061,0.061,20,1,1,1,400,1,1,1,4,0,14,3.5,6,Lc,0.2536075,0.061,0.061,0.061,0.1,20,15,30,3,2
1,13,25,1,6,9.942999999999993,16,46,7,8,1,114,12.07799999999999,9.637999999999993,3.476999999999997,1.8299999999999987,20,15,12,5,52,42,19,7,6,0.5,38,5,6,Lc,0.23226923076923076,0.22947619047619044,0.183,0.2614285714285714,0.1,20,15,30,3,2
1,13,26,1,1,7.136999999999994,14,36,73,74,83,80,7.563999999999994,3.0499999999999976,4.330999999999997,0.6099999999999999,17,11,11,4,39,13,14,4,3,1,36,3,6,Lc,0.19394871794871796,0.2346153846153846,0.30935714285714283,0.1525,0.1,20,15,30,3,2
1,14,27,1,1,7.197999999999994,8,34,82,73,12,77,11.406999999999991,0.183,27.998999999999977,0.061,20,2,18,1,51,2,124,1,3,0.5,24,3.75,6,Lc,0.22366666666666665,0.0915,0.22579838709677416,0.061,0.1,20,15,30,3,2
1,14,28,1,7,5.672999999999996,13,30,15,24,104,94,10.247999999999992,2.1349999999999985,6.343999999999995,3.2939999999999974,20,9,14,11,49,12,25,15,6,0,17,4.25,6,Lc,0.20914285714285713,0.17791666666666667,0.25376,0.2196,0.1,20,15,30,3,2
1,15,29,1,5,6.709999999999995,13,27,48,38,24,98,8.966999999999993,3.781999999999997,7.380999999999994,0.9149999999999996,20,10,12,3,42,14,24,3,5,0,18,4.5,6,Lc,0.21349999999999997,0.27014285714285713,0.30754166666666666,0.305,0.1,20,15,30,3,2
1,15,30,1,3,4.208999999999997,11,21,36,119,120,117,15.798999999999989,5.7339999999999955,1.4029999999999991,1.524999999999999,20,14,3,4,73,27,4,6,5,0.5,17,2.75,6,Lc,0.21642465753424656,0.21237037037037038,0.35074999999999995,0.2541666666666666,0.1,20,15,30,3,2
1,16,31,1,9,10.003999999999992,19,53,65,64,66,120,12.32199999999999,2.622999999999998,0.061,8.478999999999994,20,11,1,14,64,17,1,30,4,0.5,26,3.5,6,Lc,0.19253125,0.15429411764705883,0.061,0.2826333333333333,0.1,20,15,30,3,2
1,16,32,1,2,9.820999999999993,17,43,50,51,105,57,14.94499999999999,0.488,0.5489999999999999,3.1719999999999975,20,1,4,8,74,1,5,10,4,0.5,26,3.5,6,Lc,0.20195945945945945,0.488,0.1098,0.3171999999999999,0.1,20,15,30,3,2
1,17,33,1,6,6.099999999999995,11,26,11,7,4,8,12.07799999999999,4.025999999999997,1.8299999999999987,5.001999999999996,20,11,8,12,45,18,11,23,6,1,72,6,6,Lc,0.26839999999999997,0.22366666666666665,0.16636363636363635,0.2174782608695652,0.1,20,15,30,3,2
1,17,34,1,2,10.491999999999992,17,51,51,52,21,58,10.857999999999992,1.9519999999999986,21.593999999999983,2.622999999999998,19,5,18,7,53,7,90,7,4,0.5,30,4.5,6,Lc,0.20486792452830188,0.2788571428571428,0.23993333333333333,0.37471428571428567,0.1,20,15,30,3,2
1,1,1,0,5,7.380999999999994,17,39,1,39,44,41,12.74899999999999,3.476999999999997,1.8909999999999987,2.500999999999998,20,8,8,10,58,13,9,15,5,0.5,36,5.25,6,Lc,0.21981034482758618,0.2674615384615384,0.2101111111111111,0.16673333333333332,0.1,20,15,30,3,3
1,1,2,0,1,13.11499999999999,19,61,82,100,78,27,15.981999999999987,1.0369999999999995,3.3549999999999973,7.8689999999999936,20,4,12,16,69,4,14,25,3,0,13,3.25,6,Lc,0.23162318840579707,0.25925,0.23964285714285713,0.31475999999999993,0.1,20,15,30,3,3
1,2,3,0,5,9.942999999999993,17,44,44,52,84,76,11.040999999999991,5.7949999999999955,4.391999999999997,0.5489999999999999,20,9,11,2,49,19,19,2,5,0,15,3.75,6,Lc,0.2253265306122449,0.30499999999999994,0.2311578947368421,0.27449999999999997,0.1,20,15,30,3,3
1,2,4,0,6,13.602999999999989,20,66,6,32,4,8,17.750999999999987,7.807999999999994,3.2329999999999974,5.855999999999995,20,17,9,15,87,31,17,24,6,0.5,41,5.75,6,Lc,0.20403448275862068,0.25187096774193546,0.19017647058823528,0.24399999999999997,0.1,20,15,30,3,3
1,3,5,0,7,12.13899999999999,20,70,17,99,78,74,19.885999999999985,7.197999999999994,2.2569999999999983,4.147999999999997,20,16,7,11,107,30,7,15,6,0,14,3.5,6,Lc,0.1858504672897196,0.2399333333333333,0.32242857142857134,0.2765333333333333,0.1,20,15,30,3,3
1,3,6,0,5,11.223999999999991,20,56,41,47,37,11,12.50499999999999,4.818999999999996,0.7319999999999998,13.724999999999989,20,9,4,15,63,14,4,45,5,0.5,36,5.25,6,Lc,0.19849206349206347,0.34421428571428564,0.183,0.30499999999999994,0.1,20,15,30,3,3
1,4,7,0,1,8.966999999999993,16,39,73,75,14,81,13.60299999999999,1.2809999999999993,7.197999999999994,2.561999999999998,20,2,12,8,54,2,26,12,3,0.5,24,3.75,6,Lc,0.25190740740740736,0.6404999999999997,0.2768461538461538,0.2135,0.1,20,15,30,3,3
1,4,8,0,2,8.783999999999994,12,42,57,59,30,106,13.72499999999999,0.061,13.907999999999989,3.2939999999999974,20,1,18,13,63,1,52,18,4,0,15,3.75,6,Lc,0.21785714285714283,0.061,0.2674615384615384,0.183,0.1,20,15,30,3,3
1,5,9,0,3,11.589999999999991,19,51,35,53,32,26,11.650999999999991,4.513999999999997,2.439999999999998,1.7689999999999988,20,15,7,6,52,25,8,6,5,0.5,34,4.75,6,Lc,0.22405769230769226,0.18056,0.30499999999999994,0.2948333333333333,0.1,20,15,30,3,3
1,5,10,0,9,6.282999999999995,15,28,67,61,63,71,9.637999999999993,3.0499999999999976,0.488,0.6099999999999999,20,12,4,2,42,16,4,2,4,1,48,4,6,Lc,0.22947619047619044,0.190625,0.122,0.305,0.1,20,15,30,3,3
1,6,11,1,1,10.247999999999992,10,37,83,33,81,76,14.212999999999989,19.702999999999985,0.061,0.122,20,18,1,2,49,86,1,2,3,0.5,23,3.5,6,Lc,0.2900612244897959,0.22910465116279066,0.061,0.061,0.1,20,15,30,3,3
1,6,12,1,9,11.650999999999991,13,61,64,71,62,72,19.275999999999986,3.842999999999997,3.0499999999999976,1.2199999999999993,20,11,11,4,88,14,15,4,4,1,48,4,6,Lc,0.21904545454545452,0.27449999999999997,0.2033333333333333,0.30499999999999994,0.1,20,15,30,3,3
1,7,13,1,1,3.476999999999997,10,19,13,77,101,49,437.8579999999596,0.061,0.183,0.061,20,1,3,1,1796,1,3,1,3,0,15,3.75,6,Lc,0.2437962138084632,0.061,0.061,0.061,0.1,20,15,30,3,3
1,7,14,1,6,5.7949999999999955,6,22,3,12,2,7,10.735999999999992,3.537999999999997,20.434999999999985,1.1589999999999994,20,10,18,5,46,16,90,7,6,1,72,6,6,Lc,0.23339130434782607,0.221125,0.22705555555555554,0.16557142857142856,0.1,20,15,30,3,3
1,8,15,1,2,9.515999999999993,11,45,55,59,53,20,11.589999999999991,6.953999999999994,1.8909999999999987,2.9889999999999977,20,12,7,9,55,25,8,15,4,0.5,30,4.5,6,Lc,0.2107272727272727,0.27815999999999996,0.236375,0.19926666666666665,0.1,20,15,30,3,3
1,8,16,1,6,6.8929999999999945,15,32,7,5,6,9,10.613999999999992,1.8299999999999987,0.244,2.9889999999999977,20,9,3,10,42,9,3,13,6,1,72,6,6,Lc,0.25271428571428567,0.2033333333333333,0.08133333333333333,0.2299230769230769,0.1,20,15,30,3,3
1,9,17,1,10,10.125999999999992,17,49,96,89,87,11,13.663999999999989,4.513999999999997,0.7319999999999998,3.0499999999999976,20,12,1,8,65,25,1,9,3,0.5,24,3.75,6,Lc,0.2102153846153846,0.18056,0.7319999999999998,0.33888888888888885,0.1,20,15,30,3,3
1,9,18,1,5,5.855999999999995,7,24,45,40,46,38,7.929999999999994,0.061,2.3179999999999983,24.64399999999998,12,1,8,17,32,1,12,99,5,1,60,5,6,Lc,0.2478125,0.061,0.19316666666666665,0.2489292929292929,0.1,20,15,30,3,3
1,10,19,1,2,9.820999999999993,19,44,56,50,19,55,9.942999999999993,6.8929999999999945,8.783999999999994,2.0739999999999985,20,16,15,7,46,31,38,8,4,0.5,30,4.5,6,Lc,0.21615217391304348,0.2223548387096774,0.2311578947368421,0.2592499999999999,0.1,20,15,30,3,3
1,10,20,1,10,8.356999999999994,10,41,90,85,92,10,8.478999999999994,1.1589999999999994,6.099999999999995,1.463999999999999,11,5,13,6,42,5,23,6,3,0.5,24,3.75,6,Lc,0.20188095238095236,0.2318,0.2652173913043478,0.244,0.1,20,15,30,3,3
1,11,21,1,5,12.74899999999999,12,62,43,23,48,24,12.99299999999999,14.273999999999988,0.061,6.099999999999995,14,18,1,12,64,73,1,18,5,0,22,5.5,6,Lc,0.203015625,0.19553424657534246,0.061,0.33888888888888885,0.1,20,15,30,3,3
1,11,22,1,9,7.746999999999994,17,41,4,93,2,91,14.578999999999988,24.64399999999998,4.574999999999997,1.524999999999999,20,19,12,4,70,91,19,4,4,0,18,4.5,6,Lc,0.20827142857142855,0.2708131868131868,0.2407894736842105,0.38124999999999987,0.1,20,15,30,3,3
1,12,23,1,8,11.284999999999991,20,61,119,114,115,16,19.824999999999985,1.646999999999999,1.2809999999999993,0.5489999999999999,20,7,8,3,100,8,8,3,2,0.5,18,3,6,Lc,0.19824999999999998,0.20587499999999997,0.160125,0.183,0.1,20,15,30,3,3
1,12,24,1,4,9.088999999999993,19,41,106,104,103,4,9.515999999999993,0.7929999999999997,1.585999999999999,1.0979999999999994,20,5,5,5,45,5,9,7,2,0.5,18,3,6,Lc,0.21146666666666666,0.1586,0.17622222222222222,0.15685714285714286,0.1,20,15,30,3,3
1,13,25,1,9,3.1109999999999975,13,20,2,69,67,65,28.791999999999977,0.061,0.366,0.6099999999999999,20,1,3,5,123,1,3,6,4,0.5,30,4.5,6,Lc,0.2340813008130081,0.061,0.122,0.10166666666666667,0.1,20,15,30,3,3
1,13,26,1,8,7.075999999999994,12,33,112,109,116,53,8.234999999999994,1.8909999999999987,4.025999999999997,7.990999999999993,17,8,11,15,38,11,16,40,2,0.5,16,2.5,6,Lc,0.21671052631578946,0.1719090909090909,0.251625,0.19977499999999998,0.1,20,15,30,3,3
1,14,27,1,9,10.125999999999992,19,59,63,67,114,41,13.23699999999999,1.7689999999999988,7.502999999999994,4.879999999999996,20,6,15,14,72,6,31,26,4,0,15,3.75,6,Lc,0.18384722222222222,0.29483333333333334,0.24203225806451611,0.18769230769230769,0.1,20,15,30,3,3
1,14,28,1,2,8.478999999999994,16,44,50,49,53,85,15.798999999999989,12.19999999999999,8.783999999999994,17.567999999999987,20,17,14,14,77,47,35,76,4,0.5,27,3.75,6,Lc,0.20518181818181816,0.25957446808510637,0.2509714285714285,0.2311578947368421,0.1,20,15,30,3,3
1,15,29,1,1,13.11499999999999,17,56,120,78,50,75,16.16499999999999,1.0369999999999995,8.295999999999994,1.585999999999999,20,7,18,8,65,10,36,9,3,0,12,3,6,Lc,0.24869230769230766,0.1037,0.23044444444444442,0.17622222222222222,0.1,20,15,30,3,3
1,15,30,1,6,5.916999999999995,12,26,3,39,5,10,14.94499999999999,0.427,0.6709999999999998,1.4029999999999991,20,3,2,3,60,3,3,5,6,0.5,41,5.75,6,Lc,0.24908333333333332,0.14233333333333334,0.22366666666666665,0.2806,0.1,20,15,30,3,3
1,16,31,1,7,6.404999999999995,19,29,22,15,13,37,10.125999999999992,9.271999999999993,0.5489999999999999,2.9279999999999977,20,16,1,11,47,39,1,14,6,0.5,41,5.75,6,Lc,0.2154468085106383,0.23774358974358972,0.5489999999999999,0.20914285714285713,0.1,20,15,30,3,3
1,16,32,1,3,5.306999999999996,13,21,4,28,77,25,28.425999999999977,0.061,1.0979999999999994,0.305,20,1,3,1,128,1,3,1,5,0,19,4.75,6,Lc,0.222078125,0.061,0.366,0.305,0.1,20,15,30,3,3
1,1,1,0,1,13.785999999999989,19,63,55,84,77,35,18.055999999999987,0.6709999999999998,2.0739999999999985,0.183,20,3,7,2,74,3,9,2,3,0,15,3.75,6,Lc,0.24399999999999997,0.22366666666666665,0.23044444444444445,0.0915,0.1,20,15,30,3,4
1,1,2,0,9,12.07799999999999,19,50,70,71,62,18,13.17599999999999,2.1959999999999984,9.027999999999993,4.452999999999997,20,9,16,15,55,10,35,23,4,0.5,30,4.5,6,Lc,0.23956363636363634,0.21959999999999996,0.25794285714285714,0.1936086956521739,0.1,20,15,30,3,4
1,2,3,0,5,5.489999999999996,13,32,44,39,47,97,9.332999999999993,0.8539999999999996,1.2199999999999993,2.3789999999999982,20,5,5,5,48,6,6,8,5,0.5,32,4.25,6,Lc,0.19443749999999999,0.14233333333333334,0.20333333333333334,0.29737499999999994,0.1,20,15,30,3,4
1,2,4,0,8,10.735999999999992,15,35,112,15,116,78,16.896999999999988,6.526999999999995,2.744999999999998,5.977999999999995,20,17,8,15,60,24,12,24,2,0,13,3.25,6,Lc,0.2816166666666666,0.2719583333333333,0.22874999999999998,0.24908333333333332,0.1,20,15,30,3,4
1,3,5,0,9,14.517999999999988,15,68,71,86,69,8,22.935999999999982,0.488,0.6099999999999999,0.366,20,3,5,2,92,3,5,2,4,0,17,4.25,6,Lc,0.24930434782608693,0.16266666666666665,0.122,0.183,0.1,20,15,30,3,4
1,3,6,0,8,8.356999999999994,16,30,120,114,60,79,10.857999999999992,2.0739999999999985,2.500999999999998,4.7579999999999965,20,6,9,12,40,8,12,17,2,0,11,2.75,6,Lc,0.27144999999999997,0.25925,0.20841666666666667,0.2798823529411764,0.1,20,15,30,3,4
1,4,7,0,3,10.003999999999992,17,52,29,33,25,28,13.29799999999999,4.147999999999997,1.3419999999999992,0.7319999999999998,20,11,4,6,62,17,5,6,5,1,60,5,6,Lc,0.2144838709677419,0.24399999999999997,0.26839999999999997,0.122,0.1,20,15,30,3,4
1,4,8,0,6,8.844999999999994,16,34,9,6,11,105,16.22599999999999,0.5489999999999999,1.524999999999999,2.683999999999998,20,3,5,9,74,3,5,10,6,0.5,38,5,6,Lc,0.21927027027027024,0.183,0.305,0.26839999999999997,0.1,20,15,30,3,4
1,5,9,0,2,10.613999999999992,17,49,56,51,91,59,12.74899999999999,4.879999999999996,3.537999999999997,0.7319999999999998,20,12,13,6,65,23,17,9,4,0.5,27,3.75,6,Lc,0.19613846153846154,0.21217391304347827,0.20811764705882352,0.08133333333333333,0.1,20,15,30,3,4
1,5,10,0,5,14.090999999999989,18,68,42,40,41,13,18.360999999999986,2.683999999999998,1.646999999999999,14.151999999999989,20,8,9,16,85,12,9,56,5,0.5,36,5.25,6,Lc,0.21601176470588235,0.22366666666666665,0.183,0.25271428571428567,0.1,20,15,30,3,4
1,6,11,1,6,5.123999999999996,11,21,1,12,3,11,9.942999999999993,0.488,7.746999999999994,12.87099999999999,20,4,15,16,44,4,40,54,6,1,72,6,6,Lc,0.2259772727272727,0.122,0.19367499999999999,0.23835185185185184,0.1,20,15,30,3,4
1,6,12,1,7,7.990999999999993,16,40,14,24,18,17,12.56599999999999,0.061,4.025999999999997,16.530999999999988,20,1,10,16,60,1,17,56,6,1,72,6,6,Lc,0.20943333333333333,0.061,0.2368235294117647,0.2951964285714285,0.1,20,15,30,3,4
1,7,13,1,10,5.489999999999996,10,27,92,39,96,94,7.258999999999995,20.861999999999984,1.4029999999999991,1.2199999999999993,15,19,5,4,33,98,5,4,3,0.5,23,3.5,6,Lc,0.21996969696969695,0.21287755102040815,0.28059999999999996,0.30499999999999994,0.1,20,15,30,3,4
1,7,14,1,4,5.550999999999996,12,24,105,106,25,108,8.661999999999994,7.380999999999994,0.8539999999999996,0.8539999999999996,20,14,4,4,33,21,4,4,2,0.5,17,2.75,6,Lc,0.26248484848484843,0.3514761904761904,0.2135,0.2135,0.1,20,15,30,3,4
1,8,15,1,5,7.380999999999994,16,32,40,78,117,120,15.554999999999989,2.9279999999999977,1.0979999999999994,0.7929999999999997,20,8,2,3,68,10,2,3,5,0,12,3,6,Lc,0.22874999999999998,0.29279999999999995,0.5489999999999998,0.2643333333333333,0.1,20,15,30,3,4
1,8,16,1,2,23.118999999999982,13,99,58,49,4,27,25.43699999999998,0.7319999999999998,8.966999999999993,0.488,17,8,12,4,104,8,28,4,4,0,19,4.75,6,Lc,0.24458653846153844,0.0915,0.3202499999999999,0.122,0.1,20,15,30,3,4
1,9,17,1,5,3.476999999999997,13,19,48,43,40,85,5.306999999999996,0.122,5.7949999999999955,8.051999999999994,19,1,12,13,25,2,24,29,5,0.5,33,4.5,6,Lc,0.21228,0.061,0.2414583333333333,0.27765517241379306,0.1,20,15,30,3,4
1,9,18,1,9,11.71199999999999,17,47,65,71,69,34,17.750999999999987,1.0369999999999995,0.061,7.746999999999994,20,3,1,15,84,4,1,25,4,0.5,29,4.25,6,Lc,0.21132142857142855,0.25925,0.061,0.30987999999999993,0.1,20,15,30,3,4
1,10,19,1,3,11.589999999999991,19,52,27,31,30,2,13.724999999999989,1.0369999999999995,4.452999999999997,1.2809999999999993,20,5,7,5,64,5,12,7,5,0.5,36,5.25,6,Lc,0.21445312499999997,0.2074,0.37108333333333327,0.183,0.1,20,15,30,3,4
1,10,20,1,2,9.942999999999993,16,44,59,54,38,88,11.467999999999991,0.061,9.271999999999993,5.7949999999999955,20,1,17,11,50,1,41,28,4,0,16,4,6,Lc,0.22935999999999998,0.061,0.2261463414634146,0.2069642857142857,0.1,20,15,30,3,4
1,11,21,1,6,12.50499999999999,13,65,4,1,3,103,14.944999999999988,6.465999999999995,17.262999999999987,0.244,20,18,17,2,74,32,74,2,6,0.5,38,5,6,Lc,0.20195945945945945,0.2020625,0.23328378378378375,0.122,0.1,20,15,30,3,4
1,11,22,1,5,20.251999999999985,9,83,46,40,39,49,25.25399999999998,1.0979999999999994,0.061,14.151999999999989,20,2,1,17,100,2,1,54,5,0.5,34,4.75,6,Lc,0.25254,0.5489999999999999,0.061,0.26207407407407407,0.1,20,15,30,3,4
1,12,23,1,3,8.295999999999994,17,44,32,26,25,91,11.406999999999991,0.244,5.001999999999996,1.4029999999999991,20,1,11,4,60,1,18,6,5,0.5,33,4.5,6,Lc,0.19011666666666666,0.244,0.27788888888888885,0.2338333333333333,0.1,20,15,30,3,4
1,12,24,1,7,4.879999999999996,12,22,14,17,102,24,17.384999999999987,5.672999999999996,1.4029999999999991,0.366,20,15,1,2,77,24,1,2,6,0.5,38,5,6,Lc,0.22577922077922075,0.23637499999999997,1.4029999999999991,0.183,0.1,20,15,30,3,4
1,13,25,1,2,8.051999999999994,12,31,54,51,76,49,8.722999999999994,2.500999999999998,1.7079999999999989,2.9889999999999977,17,9,6,10,38,13,7,13,4,0.5,27,3.75,6,Lc,0.22955263157894734,0.19238461538461538,0.244,0.2299230769230769,0.1,20,15,30,3,4
1,13,26,1,9,6.160999999999995,15,32,68,71,69,62,8.173999999999994,1.0369999999999995,0.061,4.452999999999997,20,3,1,14,42,3,1,25,4,1,48,4,6,Lc,0.1946190476190476,0.34566666666666657,0.061,0.17811999999999997,0.1,20,15,30,3,4
1,14,27,1,1,8.112999999999994,14,41,75,81,80,99,8.478999999999994,0.6709999999999998,2.1959999999999984,13.785999999999989,17,5,6,16,44,5,8,55,3,0.5,20,2.75,6,Lc,0.19270454545454543,0.13419999999999999,0.27449999999999997,0.2506545454545454,0.1,20,15,30,3,4
1,14,28,1,5,5.977999999999995,14,42,46,38,11,92,9.515999999999993,2.2569999999999983,7.746999999999994,0.6099999999999999,20,12,15,3,56,15,35,4,5,0,19,4.75,6,Lc,0.16992857142857143,0.15046666666666667,0.22134285714285712,0.1525,0.1,20,15,30,3,4
1,15,29,1,8,15.127999999999988,15,61,120,114,112,91,16.957999999999988,3.903999999999997,3.842999999999997,1.7079999999999989,20,9,13,8,72,14,19,8,2,0.5,15,2.25,6,Lc,0.23552777777777775,0.27885714285714286,0.20226315789473684,0.2135,0.1,20,15,30,3,4
1,15,30,1,3,6.404999999999995,12,32,30,26,16,15,10.552999999999992,2.561999999999998,38.12499999999997,1.1589999999999994,20,9,18,3,48,11,153,3,5,0,22,5.5,6,Lc,0.21985416666666666,0.2329090909090909,0.2491830065359477,0.3863333333333332,0.1,20,15,30,3,4
1,16,31,1,1,12.38299999999999,13,62,82,79,76,20,19.824999999999985,0.7929999999999997,1.524999999999999,0.9759999999999995,20,3,4,3,90,3,4,3,3,0.5,24,3.75,6,Lc,0.22027777777777777,0.2643333333333333,0.38124999999999987,0.3253333333333333,0.1,20,15,30,3,4
1,16,32,1,6,14.334999999999988,18,58,60,6,59,9,17.811999999999987,3.1109999999999975,7.197999999999994,0.427,20,12,17,3,77,20,37,3,6,0,20,5,6,Lc,0.2313246753246753,0.15555,0.19454054054054054,0.14233333333333334,0.1,20,15,30,3,4
1,17,33,1,1,8.356999999999994,14,42,83,77,6,63,11.650999999999991,6.8319999999999945,0.244,0.9149999999999996,20,18,1,1,63,36,1,1,3,0,16,4,6,Lc,0.18493650793650793,0.18977777777777777,0.244,0.9149999999999996,0.1,20,15,30,3,4
1,17,34,1,10,8.600999999999994,15,44,96,95,26,97,12.56599999999999,2.9279999999999977,2.3789999999999982,0.8539999999999996,20,11,6,6,58,16,8,6,3,0,13,3.25,6,Lc,0.2166551724137931,0.183,0.297375,0.14233333333333334,0.1,20,15,30,3,4
1,18,35,1,8,4.6969999999999965,17,23,15,112,83,79,47.57999999999996,0.122,0.061,0.183,20,1,1,2,211,1,1,2,2,0,14,3.5,6,Lc,0.22549763033175352,0.122,0.061,0.0915,0.1,20,15,30,3,4
1,18,36,1,10,8.661999999999994,19,44,92,95,88,89,16.22599999999999,0.427,0.061,8.539999999999994,20,2,1,16,80,2,1,36,3,1,36,3,6,Lc,0.20282499999999998,0.2135,0.061,0.23722222222222222,0.1,20,15,30,3,4
1,1,1,0,8,14.334999999999988,18,62,120,111,10,28,17.994999999999987,1.1589999999999994,4.818999999999996,5.062999999999996,20,7,12,15,79,7,22,21,2,0,15,3.75,6,Lc,0.22778481012658225,0.16557142857142856,0.21904545454545454,0.24109523809523806,0.1,20,15,30,3,5
1,1,2,0,1,5.7339999999999955,11,20,84,78,80,57,6.282999999999996,6.038999999999995,2.3789999999999982,0.8539999999999996,15,17,10,4,24,28,12,4,3,0.5,22,3.25,6,Lc,0.26179166666666664,0.21567857142857141,0.19824999999999998,0.2135,0.1,20,15,30,3,5
1,2,3,0,9,14.700999999999988,13,70,62,34,71,67,16.16499999999999,2.500999999999998,6.526999999999995,0.305,17,8,11,2,74,9,24,2,4,0.5,29,4.25,6,Lc,0.21844594594594594,0.27788888888888885,0.2719583333333333,0.1525,0.1,20,15,30,3,5
1,2,4,0,5,8.722999999999994,19,42,37,45,94,20,11.162999999999991,5.916999999999995,1.9519999999999986,1.2809999999999993,20,15,7,4,50,27,8,4,5,0,19,4.75,6,Lc,0.22326,0.21914814814814812,0.244,0.32025,0.1,20,15,30,3,5
1,3,5,0,5,9.637999999999993,17,41,38,41,6,2,12.50499999999999,0.122,6.8929999999999945,7.319999999999994,20,2,14,14,51,2,29,25,5,0,22,5.5,6,Lc,0.24519607843137253,0.061,0.23768965517241378,0.29279999999999995,0.1,20,15,30,3,5
1,3,6,0,1,13.35899999999999,18,60,83,77,33,29,14.883999999999988,4.025999999999997,3.781999999999997,7.563999999999994,20,10,8,16,68,16,12,36,3,0,16,4,6,Lc,0.21888235294117644,0.251625,0.31516666666666665,0.2101111111111111,0.1,20,15,30,3,5
1,4,7,0,5,2.561999999999998,6,6,15,47,98,43,29.340999999999976,0.061,0.488,0.061,20,1,3,1,112,1,3,1,5,0,18,4.5,6,Lc,0.26197321428571424,0.061,0.16266666666666665,0.061,0.1,20,15,30,3,5
1,4,8,0,9,5.001999999999996,16,36,67,65,111,87,15.737999999999989,0.6709999999999998,6.465999999999995,4.147999999999997,20,3,15,9,86,3,28,11,4,0,13,3.25,6,Lc,0.183,0.22366666666666665,0.2309285714285714,0.377090909090909,0.1,20,15,30,3,5
1,5,9,0,3,5.367999999999996,13,21,13,110,36,119,33.732999999999976,0.061,0.061,0.061,20,1,1,1,129,1,1,1,5,0,15,3.75,6,Lc,0.26149612403100775,0.061,0.061,0.061,0.1,20,15,30,3,5
1,5,10,0,1,9.881999999999993,19,51,73,3,43,84,10.613999999999992,10.674999999999992,1.7079999999999989,1.7689999999999988,20,18,7,8,55,41,7,8,3,0,17,4.25,6,Lc,0.19298181818181817,0.26036585365853654,0.244,0.221125,0.1,20,15,30,3,5
1,6,11,1,3,7.807999999999994,17,43,35,27,87,25,8.905999999999993,6.099999999999995,5.062999999999996,1.585999999999999,20,16,11,7,51,30,16,8,5,0.5,33,4.5,6,Lc,0.17462745098039215,0.2033333333333333,0.3164374999999999,0.19824999999999998,0.1,20,15,30,3,5
1,6,12,1,6,8.661999999999994,19,34,10,4,3,9,9.393999999999993,1.7689999999999988,1.7079999999999989,31.231999999999974,20,9,4,17,38,10,5,134,6,1,72,6,6,Lc,0.24721052631578946,0.1769,0.34159999999999996,0.23307462686567162,0.1,20,15,30,3,5
1,7,13,1,5,4.818999999999996,11,20,114,119,1,42,45.993999999999964,0.9759999999999995,10.308999999999992,0.061,20,7,16,1,167,7,40,1,5,0,15,3.75,6,Lc,0.2754131736526946,0.13942857142857143,0.257725,0.061,0.1,20,15,30,3,5
1,7,14,1,7,3.598999999999997,9,17,17,21,24,18,3.781999999999997,2.3789999999999982,0.5489999999999999,8.417999999999994,11,7,3,12,19,9,3,33,6,1,72,6,6,Lc,0.19905263157894734,0.2643333333333333,0.183,0.25509090909090903,0.1,20,15,30,3,5
1,8,15,1,7,10.674999999999992,19,52,17,20,13,15,13.968999999999989,1.2199999999999993,1.7689999999999988,0.9149999999999996,20,5,7,4,64,6,8,4,6,1,72,6,6,Lc,0.218265625,0.20333333333333334,0.221125,0.22874999999999995,0.1,20,15,30,3,5
1,8,16,1,5,8.722999999999994,12,30,41,39,119,118,11.345999999999991,1.646999999999999,7.075999999999994,6.221999999999995,20,8,15,13,41,9,23,23,5,0,14,3.5,6,Lc,0.27673170731707314,0.18299999999999997,0.30765217391304345,0.27052173913043476,0.1,20,15,30,3,5
1,9,17,1,10,6.465999999999995,12,27,20,91,90,93,10.552999999999992,8.295999999999994,2.2569999999999983,2.2569999999999983,20,16,8,10,45,43,9,10,3,0.5,24,3.75,6,Lc,0.2345111111111111,0.19293023255813951,0.25077777777777777,0.22569999999999998,0.1,20,15,30,3,5
1,9,18,1,1,10.918999999999992,20,60,78,80,5,7,13.41999999999999,2.3179999999999983,11.345999999999991,5.123999999999996,20,6,17,14,67,9,42,27,3,0,18,4.5,6,Lc,0.20029850746268654,0.25755555555555554,0.27014285714285713,0.18977777777777777,0.1,20,15,30,3,5
1,10,19,1,5,8.356999999999994,15,39,45,39,41,20,16.10399999999999,0.122,6.709999999999995,0.8539999999999996,20,1,15,6,72,1,33,6,5,0.5,36,5.25,6,Lc,0.22366666666666665,0.122,0.2033333333333333,0.1423333333333333,0.1,20,15,30,3,5
1,10,20,1,4,12.80999999999999,19,65,104,108,107,82,13.846999999999989,0.061,14.212999999999989,0.7929999999999997,20,1,16,6,69,1,67,6,2,0.5,15,2.25,6,Lc,0.20068115942028983,0.061,0.21213432835820895,0.13216666666666665,0.1,20,15,30,3,5
1,11,21,1,1,14.700999999999988,18,73,76,120,84,80,19.336999999999986,1.8909999999999987,3.1109999999999975,1.7079999999999989,20,9,11,4,94,11,12,4,3,0.5,20,2.75,6,Lc,0.2057127659574468,0.1719090909090909,0.25925,0.42699999999999994,0.1,20,15,30,3,5
1,11,22,1,5,7.563999999999994,17,43,37,48,43,39,12.07799999999999,0.8539999999999996,8.661999999999994,4.147999999999997,20,5,17,14,58,5,41,17,5,1,60,5,6,Lc,0.2082413793103448,0.17079999999999998,0.21126829268292682,0.24399999999999997,0.1,20,15,30,3,5
1,12,23,1,9,6.648999999999995,16,33,95,88,100,106,39.34499999999997,1.4029999999999991,1.646999999999999,2.439999999999998,20,8,8,7,152,8,9,9,4,0,10,2.5,6,Lc,0.2588486842105263,0.175375,0.183,0.2711111111111111,0.1,20,15,30,3,5
1,12,24,1,7,11.101999999999991,13,48,13,19,18,52,12.74899999999999,3.2939999999999974,4.6969999999999965,16.22599999999999,18,6,11,16,53,9,21,57,6,0.5,40,5.5,6,Lc,0.2405471698113207,0.36599999999999994,0.22366666666666665,0.2846666666666666,0.1,20,15,30,3,5
1,13,25,1,8,4.818999999999996,12,19,3,91,90,29,52.39899999999996,0.122,0.061,0.061,20,2,1,1,206,2,1,1,2,0,17,4.25,6,Lc,0.2543640776699029,0.061,0.061,0.061,0.1,20,15,30,3,5
1,13,26,1,5,4.574999999999997,15,21,13,48,57,45,118.70600000000574,0.061,0.061,0.427,20,1,1,2,511,1,1,2,5,0,20,5,6,Lc,0.2323013698630137,0.061,0.061,0.2135,0.1,20,15,30,3,5
1,14,27,1,4,11.83399999999999,18,50,102,103,25,34,14.578999999999988,0.9149999999999996,1.2809999999999993,3.1719999999999975,20,5,4,9,60,6,6,13,2,0,14,3.5,6,Lc,0.2429833333333333,0.1525,0.2135,0.244,0.1,20,15,30,3,5
1,14,28,1,7,7.441999999999994,10,36,23,14,22,21,7.807999999999994,4.391999999999997,2.0739999999999985,11.650999999999991,14,11,8,16,40,18,11,51,6,1,72,6,6,Lc,0.19519999999999998,0.24399999999999997,0.18854545454545454,0.22845098039215686,0.1,20,15,30,3,5
1,15,29,1,9,8.783999999999994,16,50,69,61,28,33,12.809999999999992,0.366,2.561999999999998,2.744999999999998,20,2,10,6,61,2,20,12,4,0,18,4.5,6,Lc,0.20999999999999996,0.183,0.1281,0.22874999999999995,0.1,20,15,30,3,5
1,15,30,1,2,6.8929999999999945,15,31,51,54,106,107,7.258999999999994,0.305,14.456999999999988,6.587999999999995,19,3,18,15,35,3,72,35,4,0,12,3,6,Lc,0.20739999999999997,0.10166666666666667,0.20079166666666665,0.18822857142857144,0.1,20,15,30,3,5
1,16,31,1,2,5.306999999999996,13,22,81,106,101,99,34.037999999999975,0.061,2.622999999999998,2.3789999999999982,20,1,9,13,150,1,13,17,4,0.5,15,2.25,6,Lc,0.22691999999999998,0.061,0.20176923076923076,0.13994117647058824,0.1,20,15,30,3,5
1,16,32,1,9,11.345999999999991,19,59,70,65,113,47,17.445999999999987,1.4029999999999991,3.1719999999999975,3.781999999999997,20,5,10,11,83,6,12,17,4,0,15,3.75,6,Lc,0.21019277108433732,0.2338333333333333,0.2643333333333333,0.22247058823529411,0.1,20,15,30,3,5
1,17,33,1,1,5.245999999999996,13,22,15,78,81,107,52.39899999999996,0.122,0.061,0.061,20,2,1,1,213,2,1,1,3,0,14,3.5,6,Lc,0.24600469483568072,0.061,0.061,0.061,0.1,20,15,30,3,5
1,17,34,1,3,4.025999999999997,12,18,34,119,26,31,6.892999999999995,2.683999999999998,1.463999999999999,0.5489999999999999,19,9,2,3,27,12,2,3,5,0.5,32,4.25,6,Lc,0.2552962962962963,0.22366666666666665,0.7319999999999995,0.183,0.1,20,15,30,3,5
1,1,1,0,5,9.027999999999993,16,43,45,2,48,49,11.589999999999991,6.343999999999995,0.183,5.001999999999996,20,14,1,13,50,27,1,24,5,0,20,5,6,Lc,0.23179999999999998,0.23496296296296296,0.183,0.20841666666666664,0.1,20,15,30,3,6
1,1,2,0,9,6.587999999999995,13,30,67,66,69,68,9.698999999999993,0.9149999999999996,3.842999999999997,1.7079999999999989,20,2,11,4,43,2,15,4,4,1,48,4,6,Lc,0.2255581395348837,0.4575,0.2562,0.4269999999999999,0.1,20,15,30,3,6
1,2,3,0,5,9.820999999999993,16,43,44,40,56,47,11.101999999999991,4.208999999999997,1.0979999999999994,2.500999999999998,20,11,5,8,52,18,5,11,5,0.5,34,4.75,6,Lc,0.21349999999999997,0.2338333333333333,0.2196,0.22736363636363635,0.1,20,15,30,3,6
1,2,4,0,3,15.615999999999987,14,72,33,35,13,15,16.896999999999988,0.6709999999999998,10.552999999999992,5.916999999999995,20,5,17,15,81,5,43,21,5,0,22,5.5,6,Lc,0.20860493827160492,0.13419999999999999,0.24541860465116278,0.28176190476190477,0.1,20,15,30,3,6
1,3,5,0,10,13.23699999999999,17,61,87,92,13,95,13.968999999999989,2.8669999999999978,6.953999999999994,2.2569999999999983,18,7,14,7,62,9,29,8,3,0.5,24,3.75,6,Lc,0.22530645161290322,0.31855555555555554,0.23979310344827584,0.282125,0.1,20,15,30,3,6
1,3,6,0,5,11.83399999999999,19,54,45,40,58,102,14.151999999999989,8.966999999999993,9.454999999999993,0.061,20,17,15,1,65,37,45,1,5,0,16,4,6,Lc,0.2177230769230769,0.24235135135135133,0.2101111111111111,0.061,0.1,20,15,30,3,6
1,4,7,0,6,9.942999999999993,16,56,5,8,75,83,11.406999999999991,0.9759999999999995,5.062999999999996,6.709999999999995,20,3,11,15,64,4,22,27,6,0,18,4.5,6,Lc,0.178234375,0.244,0.2301363636363636,0.24851851851851847,0.1,20,15,30,3,6
1,4,8,0,3,6.953999999999994,9,30,28,31,104,32,9.637999999999993,1.0369999999999995,8.722999999999994,0.244,17,6,16,2,43,7,34,2,5,0.5,32,4.25,6,Lc,0.2241395348837209,0.14814285714285713,0.25655882352941173,0.122,0.1,20,15,30,3,6
1,5,9,0,2,7.014999999999994,14,31,33,57,53,35,37.39299999999997,0.061,0.244,0.061,20,1,2,1,157,1,2,1,4,0,18,4.5,6,Lc,0.23817197452229297,0.061,0.122,0.061,0.1,20,15,30,3,6
1,5,10,0,9,10.308999999999992,20,49,63,65,70,22,12.44399999999999,1.463999999999999,3.4159999999999973,5.855999999999995,20,8,7,15,59,9,10,28,4,0.5,30,4.5,6,Lc,0.21091525423728813,0.16266666666666665,0.34159999999999996,0.20914285714285713,0.1,20,15,30,3,6
1,6,11,1,2,4.513999999999997,12,20,55,56,60,75,7.380999999999995,2.744999999999998,11.89499999999999,2.744999999999998,20,10,16,8,35,12,42,11,4,0.5,27,3.75,6,Lc,0.2108857142857143,0.22874999999999998,0.2832142857142857,0.24954545454545451,0.1,20,15,30,3,6
1,6,12,1,7,9.393999999999993,15,48,21,20,22,88,11.77299999999999,12.87099999999999,0.427,3.1719999999999975,20,15,5,11,58,51,5,14,6,0.5,39,5.25,6,Lc,0.20298275862068965,0.2523725490196078,0.0854,0.22657142857142856,0.1,20,15,30,3,6
1,7,13,1,2,4.391999999999997,12,19,13,86,53,49,43.30999999999997,0.061,0.061,1.524999999999999,20,1,1,5,187,1,1,5,4,0,17,4.25,6,Lc,0.23160427807486628,0.061,0.061,0.30499999999999994,0.1,20,15,30,3,6
1,7,14,1,5,7.197999999999994,15,37,44,78,7,80,22.569999999999983,24.21699999999998,2.3179999999999983,9.454999999999993,20,18,7,16,103,95,7,35,5,0,17,4.25,6,Lc,0.219126213592233,0.25491578947368415,0.33114285714285707,0.2701428571428571,0.1,20,15,30,3,6
1,8,15,1,3,14.761999999999988,13,59,36,13,27,26,15.310999999999988,6.709999999999995,0.244,10.125999999999992,17,14,2,16,63,21,2,52,5,0.5,36,5.25,6,Lc,0.243031746031746,0.31952380952380943,0.122,0.1947307692307692,0.1,20,15,30,3,6
1,8,16,1,5,12.74899999999999,15,47,43,39,5,44,13.29799999999999,2.3789999999999982,4.574999999999997,1.646999999999999,16,8,11,9,48,10,20,10,5,0.5,36,5.25,6,Lc,0.27704166666666663,0.23789999999999997,0.22874999999999998,0.16469999999999999,0.1,20,15,30,3,6
1,9,17,1,8,9.881999999999993,17,54,110,29,111,117,12.50499999999999,12.74899999999999,0.122,0.427,20,18,2,2,66,56,2,2,2,0.5,17,2.75,6,Lc,0.18946969696969695,0.22766071428571427,0.061,0.2135,0.1,20,15,30,3,6
1,9,18,1,10,6.8319999999999945,14,29,90,42,96,68,7.502999999999995,1.9519999999999986,3.1109999999999975,5.245999999999996,18,4,11,12,33,4,17,20,3,0,15,3.75,6,Lc,0.22736363636363635,0.4879999999999999,0.183,0.2623,0.1,20,15,30,3,6
1,10,19,1,9,10.552999999999992,13,60,61,70,5,11,13.907999999999989,0.305,5.7949999999999955,0.366,20,3,14,2,75,3,32,2,4,0,20,5,6,Lc,0.18544,0.10166666666666667,0.18109375,0.183,0.1,20,15,30,3,6
1,10,20,1,4,9.942999999999993,13,45,103,13,17,107,11.467999999999991,15.432999999999987,10.003999999999992,0.122,18,19,17,2,53,68,46,2,2,0,16,4,6,Lc,0.21637735849056602,0.22695588235294117,0.2174782608695652,0.061,0.1,20,15,30,3,6
1,11,21,1,7,9.271999999999993,15,41,23,16,85,88,11.162999999999991,15.127999999999988,1.3419999999999992,1.0369999999999995,20,19,5,7,53,60,6,7,6,0,18,4.5,6,Lc,0.21062264150943397,0.2521333333333333,0.22366666666666665,0.14814285714285713,0.1,20,15,30,3,6
1,11,22,1,2,7.502999999999994,12,35,41,52,57,59,12.19999999999999,0.5489999999999999,0.7929999999999997,0.6709999999999998,20,3,6,2,51,3,6,2,4,0.5,29,4.25,6,Lc,0.2392156862745098,0.183,0.13216666666666665,0.3354999999999999,0.1,20,15,30,3,6
1,12,23,1,3,5.977999999999995,18,32,7,70,27,32,19.214999999999986,0.6709999999999998,2.8669999999999978,1.8299999999999987,20,2,7,5,77,3,8,6,5,0,20,5,6,Lc,0.24954545454545451,0.22366666666666665,0.3583749999999999,0.30499999999999994,0.1,20,15,30,3,6
1,12,24,1,2,13.23699999999999,12,54,56,40,51,58,14.212999999999989,3.4159999999999973,0.122,6.648999999999995,16,10,1,14,60,11,1,24,4,0.5,29,4.25,6,Lc,0.2368833333333333,0.3105454545454545,0.122,0.27704166666666663,0.1,20,15,30,3,6
1,13,25,1,7,11.83399999999999,20,69,20,16,15,23,17.994999999999987,6.709999999999995,4.269999999999997,1.8299999999999987,20,15,15,7,94,35,21,8,6,1,72,6,6,Lc,0.19143617021276593,0.1917142857142857,0.20333333333333334,0.22874999999999998,0.1,20,15,30,3,6
1,13,26,1,10,10.735999999999992,19,54,87,90,89,3,14.090999999999989,1.0979999999999994,3.2329999999999974,1.8299999999999987,20,5,9,6,70,5,11,8,3,0.5,24,3.75,6,Lc,0.2013,0.2196,0.2939090909090909,0.22874999999999998,0.1,20,15,30,3,6
1,14,27,1,3,3.598999999999997,9,17,19,22,100,34,56.973999999999954,0.061,0.061,0.061,20,1,1,1,251,1,1,1,5,0,19,4.75,6,Lc,0.22698804780876491,0.061,0.061,0.061,0.1,20,15,30,3,6
1,14,28,1,1,16.469999999999988,12,72,79,10,47,40,17.567999999999987,6.404999999999995,3.598999999999997,0.6099999999999999,18,13,11,3,79,29,17,4,3,0,19,4.75,6,Lc,0.22237974683544298,0.22086206896551722,0.21170588235294116,0.1525,0.1,20,15,30,3,6
1,15,29,1,2,18.604999999999986,12,88,60,5,6,106,25.31499999999998,4.818999999999996,0.5489999999999999,26.53499999999998,20,8,3,17,109,17,3,106,4,0,18,4.5,6,Lc,0.2322477064220183,0.2834705882352941,0.183,0.2503301886792452,0.1,20,15,30,3,6
1,15,30,1,3,12.74899999999999,13,54,32,29,27,33,15.371999999999987,1.2809999999999993,1.7689999999999988,2.439999999999998,20,7,6,7,72,8,7,10,5,1,60,5,6,Lc,0.21349999999999997,0.160125,0.2527142857142857,0.244,0.1,20,15,30,3,6
1,16,31,1,3,8.417999999999994,17,30,30,103,31,104,17.262999999999987,2.439999999999998,2.0739999999999985,4.330999999999997,20,8,9,12,62,9,9,18,5,0,14,3.5,6,Lc,0.2784354838709677,0.2711111111111111,0.23044444444444442,0.24061111111111105,0.1,20,15,30,3,6
1,16,32,1,8,6.8319999999999945,19,37,109,3,116,118,12.26099999999999,6.282999999999995,14.822999999999988,0.122,20,16,18,2,61,31,63,2,2,0.5,18,3,6,Lc,0.20099999999999998,0.20267741935483868,0.23528571428571426,0.061,0.1,20,15,30,3,6
1,17,33,1,7,23.97299999999998,8,96,23,20,16,14,24.15599999999998,5.245999999999996,7.563999999999994,7.502999999999994,10,10,14,16,98,25,38,32,6,1,72,6,6,Lc,0.2464897959183673,0.20984,0.19905263157894737,0.23446874999999995,0.1,20,15,30,3,6
1,17,34,1,6,5.001999999999996,15,29,6,7,8,9,6.648999999999996,1.463999999999999,0.183,6.8929999999999945,20,4,2,14,39,4,2,33,6,1,72,6,6,Lc,0.17048717948717948,0.36599999999999994,0.0915,0.20887878787878786,0.1,20,15,30,3,6
1,1,1,0,5,8.844999999999994,16,52,40,39,21,97,12.56599999999999,1.7689999999999988,5.123999999999996,8.295999999999994,20,11,11,16,67,12,18,38,5,0,18,4.5,6,Lc,0.18755223880597013,0.14741666666666667,0.2846666666666666,0.2183157894736842,0.1,20,15,30,3,7
1,1,2,0,8,9.942999999999993,19,47,116,110,34,51,11.528999999999991,1.8909999999999987,8.478999999999994,0.488,20,5,17,4,55,6,45,4,2,0,13,3.25,6,Lc,0.20961818181818181,0.3151666666666666,0.1884222222222222,0.122,0.1,20,15,30,3,7
1,2,3,0,5,13.05399999999999,19,63,45,44,42,24,19.275999999999986,4.452999999999997,3.476999999999997,2.9279999999999977,20,14,10,9,91,20,13,11,5,0.5,36,5.25,6,Lc,0.21182417582417581,0.22264999999999996,0.2674615384615385,0.26618181818181813,0.1,20,15,30,3,7
1,2,4,0,8,11.528999999999991,14,41,117,116,82,59,12.19999999999999,0.305,10.857999999999992,3.4159999999999973,18,2,17,9,45,3,46,11,2,0,11,2.75,6,Lc,0.2711111111111111,0.10166666666666667,0.23604347826086955,0.3105454545454545,0.1,20,15,30,3,7
1,3,5,0,9,5.428999999999996,12,22,68,63,69,75,7.380999999999995,2.8669999999999978,1.524999999999999,3.659999999999997,18,11,4,11,29,13,6,17,4,0.5,27,3.75,6,Lc,0.2545172413793103,0.22053846153846152,0.25416666666666665,0.2152941176470588,0.1,20,15,30,3,7
1,3,6,0,3,13.907999999999989,14,65,25,52,36,33,22.203999999999983,0.8539999999999996,0.7319999999999998,6.099999999999995,20,5,5,14,103,5,5,29,5,0.5,34,4.75,6,Lc,0.21557281553398056,0.17079999999999998,0.1464,0.21034482758620687,0.1,20,15,30,3,7
1,4,7,0,6,5.123999999999996,14,24,2,6,8,64,12.93199999999999,0.366,6.709999999999995,3.1109999999999975,20,2,11,8,55,2,20,8,6,0.5,40,5.5,6,Lc,0.2351272727272727,0.183,0.33549999999999996,0.3888749999999999,0.1,20,15,30,3,7
1,4,8,0,7,6.099999999999995,14,26,22,14,16,20,10.369999999999992,8.051999999999994,0.5489999999999999,2.3179999999999983,20,19,4,8,42,44,4,11,6,1,72,6,6,Lc,0.24690476190476188,0.183,0.13724999999999998,0.21072727272727274,0.1,20,15,30,3,7
1,5,9,0,7,9.393999999999993,17,45,13,15,118,14,9.454999999999993,2.683999999999998,3.659999999999997,0.9149999999999996,18,9,10,7,46,14,18,8,6,0.5,38,5,6,Lc,0.20554347826086955,0.1917142857142857,0.2033333333333333,0.114375,0.1,20,15,30,3,7
1,5,10,0,3,4.330999999999997,11,17,2,58,53,27,58.92599999999995,0.427,0.183,0.061,20,3,3,1,251,3,3,1,5,0,19,4.75,6,Lc,0.23476494023904382,0.14233333333333334,0.061,0.061,0.1,20,15,30,3,7
1,6,11,1,3,13.663999999999989,20,60,80,35,75,34,22.569999999999983,4.513999999999997,0.427,1.0369999999999995,20,10,2,6,89,13,2,6,5,0,16,4,6,Lc,0.2535955056179775,0.3472307692307691,0.2135,0.17283333333333334,0.1,20,15,30,3,7
1,6,12,1,7,9.149999999999993,18,52,16,109,14,15,12.74899999999999,4.7579999999999965,1.1589999999999994,0.122,20,15,4,2,67,19,5,2,6,0.5,38,5,6,Lc,0.19028358208955223,0.25042105263157893,0.2318,0.061,0.1,20,15,30,3,7
1,7,13,1,7,7.380999999999994,18,40,13,19,15,16,13.05399999999999,3.2939999999999974,0.122,2.561999999999998,20,12,1,8,68,18,1,8,6,1,72,6,6,Lc,0.19197058823529412,0.183,0.122,0.32025,0.1,20,15,30,3,7
1,7,14,1,6,4.879999999999996,13,24,31,11,12,4,7.136999999999995,2.0739999999999985,1.9519999999999986,9.149999999999993,20,5,4,13,35,6,4,32,6,0.5,41,5.75,6,Lc,0.20391428571428571,0.34566666666666657,0.4879999999999999,0.28593749999999996,0.1,20,15,30,3,7
1,8,15,1,1,4.6969999999999965,12,28,73,84,76,113,7.563999999999995,2.8669999999999978,0.8539999999999996,4.513999999999997,19,4,3,9,35,4,3,17,3,0.5,20,2.75,6,Lc,0.21611428571428568,0.7167499999999997,0.2846666666666666,0.26552941176470585,0.1,20,15,30,3,7
1,8,16,1,6,6.160999999999995,12,38,7,4,2,31,7.014999999999995,1.7079999999999989,2.0129999999999986,20.678999999999984,15,5,6,17,41,8,6,85,6,0.5,41,5.75,6,Lc,0.17109756097560974,0.21349999999999997,0.33549999999999996,0.24328235294117645,0.1,20,15,30,3,7
1,9,17,1,3,7.990999999999993,18,47,30,32,25,12,9.149999999999993,2.1349999999999985,4.6969999999999965,6.648999999999995,20,10,10,15,53,12,18,27,5,0.5,36,5.25,6,Lc,0.17264150943396225,0.17791666666666667,0.2609444444444444,0.24625925925925923,0.1,20,15,30,3,7
1,9,18,1,5,7.807999999999994,18,43,40,47,41,59,11.162999999999991,1.9519999999999986,2.0739999999999985,27.754999999999978,20,7,9,17,55,9,11,127,5,0.5,34,4.75,6,Lc,0.20296363636363637,0.21688888888888885,0.18854545454545454,0.21854330708661415,0.1,20,15,30,3,7
1,10,19,1,6,6.587999999999995,11,29,2,11,115,28,7.8689999999999944,0.9149999999999996,8.722999999999994,3.9649999999999967,16,5,16,10,34,6,32,17,6,0,19,4.75,6,Lc,0.23144117647058823,0.1525,0.27259374999999997,0.23323529411764704,0.1,20,15,30,3,7
1,10,20,1,9,4.452999999999997,12,23,70,69,63,65,4.7579999999999965,2.500999999999998,0.5489999999999999,5.489999999999996,13,9,4,11,25,9,4,22,4,1,48,4,6,Lc,0.19032,0.27788888888888885,0.13724999999999998,0.24954545454545454,0.1,20,15,30,3,7
1,11,21,1,1,9.454999999999993,18,49,74,6,77,73,12.50499999999999,2.1959999999999984,2.683999999999998,1.7079999999999989,20,6,11,5,61,7,14,6,3,0.5,24,3.75,6,Lc,0.205,0.31371428571428567,0.1917142857142857,0.2846666666666666,0.1,20,15,30,3,7
1,11,22,1,3,7.441999999999994,13,30,29,25,13,112,13.11499999999999,0.6709999999999998,131.0280000000077,39.52799999999997,20,5,18,14,51,5,516,172,5,0,18,4.5,6,Lc,0.257156862745098,0.13419999999999999,0.2539302325581395,0.22981395348837205,0.1,20,15,30,3,7
1,12,23,1,7,5.7949999999999955,13,23,14,19,17,21,5.855999999999995,10.125999999999992,1.8299999999999987,1.7689999999999988,14,16,8,6,24,41,9,7,6,1,72,6,6,Lc,0.244,0.24697560975609753,0.20333333333333334,0.2527142857142857,0.1,20,15,30,3,7
1,12,24,1,5,8.051999999999994,14,42,41,40,9,46,12.199999999999992,0.183,5.489999999999996,4.086999999999997,20,1,15,9,58,1,27,12,5,0.5,36,5.25,6,Lc,0.2103448275862069,0.183,0.2033333333333333,0.34058333333333324,0.1,20,15,30,3,7
1,13,25,1,2,7.746999999999994,16,38,55,54,50,52,11.589999999999991,4.269999999999997,0.122,3.903999999999997,20,10,2,14,58,17,2,20,4,1,48,4,6,Lc,0.19982758620689656,0.2511764705882353,0.061,0.19519999999999998,0.1,20,15,30,3,7
1,13,26,1,7,7.8689999999999936,16,33,21,19,68,18,13.48099999999999,5.184999999999996,14.151999999999989,13.907999999999989,20,14,18,17,53,21,71,58,6,0.5,40,5.5,6,Lc,0.2543584905660377,0.24690476190476188,0.19932394366197181,0.23979310344827584,0.1,20,15,30,3,7
1,14,27,1,5,6.160999999999995,9,27,47,48,85,100,7.441999999999995,5.184999999999996,10.735999999999992,0.061,16,12,18,1,34,18,50,1,5,0,15,3.75,6,Lc,0.21888235294117647,0.2880555555555555,0.21471999999999997,0.061,0.1,20,15,30,3,7
1,14,28,1,9,8.600999999999994,13,49,71,7,4,82,21.532999999999983,16.22599999999999,3.3549999999999973,0.183,20,19,12,2,103,69,18,2,4,0,19,4.75,6,Lc,0.20905825242718445,0.23515942028985504,0.18638888888888888,0.0915,0.1,20,15,30,3,7
1,15,29,1,1,8.295999999999994,20,46,78,80,73,77,18.482999999999986,0.244,3.903999999999997,0.061,20,2,12,1,92,2,17,1,3,1,36,3,6,Lc,0.20090217391304346,0.122,0.22964705882352937,0.061,0.1,20,15,30,3,7
1,15,30,1,10,8.173999999999994,18,40,89,95,94,120,20.129999999999985,0.488,4.7579999999999965,10.735999999999992,20,3,14,13,95,3,31,46,3,0.5,20,2.75,6,Lc,0.21189473684210525,0.16266666666666665,0.15348387096774194,0.23339130434782607,0.1,20,15,30,3,7
1,16,31,1,4,7.8689999999999936,17,38,97,104,31,101,16.10399999999999,2.1349999999999985,2.744999999999998,2.683999999999998,20,7,8,9,72,8,13,13,2,0.5,17,2.75,6,Lc,0.22366666666666662,0.266875,0.21115384615384614,0.20646153846153845,0.1,20,15,30,3,7
1,16,32,1,6,8.966999999999993,18,34,4,12,61,11,16.469999999999988,1.0979999999999994,3.3549999999999973,0.9149999999999996,20,3,9,4,69,3,13,5,6,0.5,40,5.5,6,Lc,0.23869565217391303,0.366,0.25807692307692304,0.183,0.1,20,15,30,3,7
1,17,33,1,3,6.8319999999999945,15,28,18,21,73,61,56.241999999999955,55.753999999999955,0.122,0.122,20,19,1,1,218,234,1,1,5,0,19,4.75,6,Lc,0.25799082568807336,0.23826495726495722,0.122,0.122,0.1,20,15,30,3,7
1,17,34,1,5,4.818999999999996,11,35,43,47,48,53,8.051999999999994,0.5489999999999999,0.6099999999999999,14.395999999999988,20,1,5,16,48,1,5,58,5,0.5,34,4.75,6,Lc,0.16774999999999998,0.5489999999999999,0.122,0.24820689655172412,0.1,20,15,30,3,7
1,1,1,0,3,13.11499999999999,16,63,27,29,82,101,19.153999999999986,3.476999999999997,2.805999999999998,2.1349999999999985,20,10,7,8,98,16,8,9,5,0,15,3.75,6,Lc,0.1954489795918367,0.21731249999999996,0.3507499999999999,0.2372222222222222,0.1,20,15,30,3,8
1,1,2,0,5,13.663999999999989,19,57,95,40,94,19,19.397999999999985,3.598999999999997,1.463999999999999,5.489999999999996,20,13,6,17,80,15,7,30,5,0,17,4.25,6,Lc,0.24247499999999997,0.2399333333333333,0.20914285714285713,0.183,0.1,20,15,30,3,8
1,2,3,0,9,10.552999999999992,17,47,65,66,31,9,13.968999999999989,2.1959999999999984,4.7579999999999965,1.646999999999999,20,8,12,3,65,8,20,5,4,0,19,4.75,6,Lc,0.2149076923076923,0.27449999999999997,0.23789999999999997,0.32939999999999997,0.1,20,15,30,3,8
1,2,4,0,5,9.576999999999993,18,57,73,37,103,24,12.62699999999999,4.940999999999996,2.0129999999999986,0.305,20,14,6,1,68,21,7,1,5,0,16,4,6,Lc,0.18569117647058822,0.23528571428571426,0.28757142857142853,0.305,0.1,20,15,30,3,8
1,3,5,0,6,6.343999999999995,17,35,2,4,33,9,14.76199999999999,0.122,1.0369999999999995,1.0979999999999994,20,1,3,3,68,1,3,4,6,0.5,41,5.75,6,Lc,0.21708823529411764,0.122,0.3456666666666666,0.27449999999999997,0.1,20,15,30,3,8
1,3,6,0,5,14.395999999999988,18,64,38,46,92,93,16.652999999999988,1.2809999999999993,3.720999999999997,1.8299999999999987,20,4,13,7,74,4,20,8,5,0,16,4,6,Lc,0.2250405405405405,0.32025,0.18605,0.22874999999999998,0.1,20,15,30,3,8
1,4,7,0,7,13.23699999999999,12,54,17,16,47,48,28.486999999999977,5.123999999999996,0.9759999999999995,15.676999999999987,20,15,4,17,113,24,5,66,6,0,22,5.5,6,Lc,0.25209734513274334,0.2135,0.19519999999999998,0.23753030303030298,0.1,20,15,30,3,8
1,4,8,0,3,10.003999999999992,17,44,36,28,92,4,12.50499999999999,5.550999999999996,6.8319999999999945,8.051999999999994,20,13,13,16,55,25,28,36,5,0,19,4.75,6,Lc,0.22736363636363635,0.22204,0.244,0.22366666666666662,0.1,20,15,30,3,8
1,5,9,0,3,9.332999999999993,17,41,25,99,105,60,28.73099999999998,6.282999999999995,9.942999999999993,5.7339999999999955,20,16,16,11,129,32,44,17,5,0,13,3.25,6,Lc,0.22272093023255812,0.19634374999999998,0.2259772727272727,0.33729411764705874,0.1,20,15,30,3,8
1,5,10,0,5,8.905999999999993,16,44,15,85,47,42,16.10399999999999,0.488,0.427,1.7689999999999988,20,1,2,7,63,1,2,9,5,0,19,4.75,6,Lc,0.25561904761904763,0.488,0.2135,0.19655555555555554,0.1,20,15,30,3,8
1,6,11,1,1,9.820999999999993,16,43,84,18,79,48,13.35899999999999,7.197999999999994,0.7929999999999997,4.330999999999997,20,16,5,11,55,26,5,15,3,0,17,4.25,6,Lc,0.24289090909090907,0.27684615384615385,0.1586,0.28873333333333323,0.1,20,15,30,3,8
1,6,12,1,6,11.040999999999991,19,63,7,11,34,95,16.713999999999988,4.879999999999996,5.184999999999996,10.003999999999992,20,15,11,15,84,27,21,48,6,0,20,5,6,Lc,0.19897619047619047,0.18074074074074073,0.2469047619047619,0.20841666666666667,0.1,20,15,30,3,8
1,7,13,1,7,6.282999999999995,16,24,13,92,21,29,9.759999999999993,2.561999999999998,2.3179999999999983,1.463999999999999,20,10,8,4,44,10,8,6,6,0,20,5,6,Lc,0.2218181818181818,0.25619999999999993,0.28974999999999995,0.244,0.1,20,15,30,3,8
1,7,14,1,9,3.476999999999997,12,18,1,38,40,65,37.94199999999997,0.5489999999999999,0.122,0.061,20,2,2,1,166,2,2,1,4,0,20,5,6,Lc,0.22856626506024094,0.27449999999999997,0.061,0.061,0.1,20,15,30,3,8
1,8,15,1,2,10.674999999999992,18,52,52,51,33,27,13.11499999999999,2.805999999999998,3.1719999999999975,0.427,20,9,8,3,60,13,14,3,4,0,18,4.5,6,Lc,0.2185833333333333,0.21584615384615385,0.22657142857142853,0.14233333333333334,0.1,20,15,30,3,8
1,8,16,1,1,8.112999999999994,16,39,79,62,83,81,14.76199999999999,0.9149999999999996,0.244,4.269999999999997,20,1,1,13,69,2,1,17,3,0.5,22,3.25,6,Lc,0.21394202898550724,0.4575,0.244,0.2511764705882353,0.1,20,15,30,3,8
1,9,17,1,10,8.478999999999994,15,40,88,94,96,23,9.942999999999993,4.208999999999997,4.635999999999997,0.5489999999999999,20,9,13,2,45,16,23,2,3,0.5,24,3.75,6,Lc,0.22095555555555552,0.2630625,0.20156521739130434,0.27449999999999997,0.1,20,15,30,3,8
1,9,18,1,8,8.478999999999994,16,40,117,112,80,109,11.589999999999991,2.9279999999999977,2.439999999999998,1.2809999999999993,20,11,6,6,51,13,7,6,2,0.5,15,2.25,6,Lc,0.2272549019607843,0.2252307692307692,0.34857142857142853,0.2135,0.1,20,15,30,3,8
1,10,19,1,7,8.966999999999993,19,47,14,21,92,102,10.186999999999992,5.855999999999995,14.639999999999988,5.550999999999996,20,14,18,14,49,27,67,21,6,0,17,4.25,6,Lc,0.20789795918367346,0.21688888888888888,0.21850746268656715,0.2643333333333333,0.1,20,15,30,3,8
1,10,20,1,2,8.722999999999994,15,34,58,60,82,50,9.820999999999993,1.1589999999999994,2.2569999999999983,0.7319999999999998,18,3,8,2,37,3,10,2,4,0.5,27,3.75,6,Lc,0.2654324324324324,0.38633333333333325,0.22569999999999996,0.366,0.1,20,15,30,3,8
1,11,21,1,8,8.722999999999994,18,43,119,11,35,27,11.71199999999999,44.590999999999966,0.061,0.061,20,19,1,1,55,188,1,1,2,0,18,4.5,6,Lc,0.21294545454545452,0.23718617021276592,0.061,0.061,0.1,20,15,30,3,8
1,11,22,1,5,10.491999999999992,19,47,44,13,59,76,11.406999999999991,21.227999999999984,0.305,0.366,20,19,2,4,50,89,2,4,5,0,18,4.5,6,Lc,0.22813999999999998,0.23851685393258426,0.1525,0.0915,0.1,20,15,30,3,8
1,12,23,1,6,10.979999999999992,15,45,10,8,5,7,16.10399999999999,0.183,6.648999999999995,5.123999999999996,20,1,11,11,68,1,22,20,6,1,72,6,6,Lc,0.23682352941176468,0.183,0.3022272727272727,0.2562,0.1,20,15,30,3,8
1,12,24,1,8,7.990999999999993,16,43,117,120,26,118,12.38299999999999,1.646999999999999,3.0499999999999976,1.3419999999999992,20,9,11,5,58,10,15,7,2,0.5,17,2.75,6,Lc,0.21349999999999997,0.16469999999999999,0.2033333333333333,0.1917142857142857,0.1,20,15,30,3,8
1,13,25,1,6,10.003999999999992,19,59,7,12,11,2,15.31099999999999,2.744999999999998,5.489999999999996,8.112999999999994,20,11,12,14,88,15,24,31,6,1,72,6,6,Lc,0.17398863636363635,0.183,0.22875,0.2617096774193548,0.1,20,15,30,3,8
1,13,26,1,8,13.35899999999999,19,63,113,118,35,15,20.129999999999985,4.452999999999997,2.9279999999999977,0.366,20,11,11,2,100,18,12,2,2,0,15,3.75,6,Lc,0.20129999999999998,0.24738888888888888,0.244,0.183,0.1,20,15,30,3,8
1,14,27,1,8,20.129999999999985,14,83,110,120,64,94,22.203999999999983,0.8539999999999996,13.29799999999999,3.1109999999999975,20,3,18,8,93,4,49,12,2,0,11,2.75,6,Lc,0.23875268817204298,0.2135,0.2713877551020408,0.2592499999999999,0.1,20,15,30,3,8
1,14,28,1,2,13.23699999999999,18,67,14,13,98,20,15.737999999999987,42.63899999999997,0.061,0.061,20,19,1,1,76,171,1,1,4,0.5,38,5,6,Lc,0.20707894736842103,0.24935087719298243,0.061,0.061,0.1,20,15,30,3,8
1,15,29,1,9,5.855999999999995,14,26,66,63,36,67,6.526999999999996,0.183,2.500999999999998,1.7079999999999989,17,2,5,6,29,2,8,8,4,0.5,29,4.25,6,Lc,0.22506896551724137,0.0915,0.31262499999999993,0.21349999999999997,0.1,20,15,30,3,8
1,15,30,1,2,9.759999999999993,16,47,53,54,51,77,13.11499999999999,0.9149999999999996,1.0979999999999994,13.602999999999989,20,7,5,17,63,9,6,56,4,0.5,27,3.75,6,Lc,0.20817460317460315,0.10166666666666667,0.183,0.24291071428571426,0.1,20,15,30,3,8
1,16,31,1,3,6.587999999999995,16,27,90,92,93,100,54.16799999999996,1.0369999999999995,0.061,1.2199999999999993,20,6,1,5,197,7,1,6,5,0.5,20,2.75,6,Lc,0.2749644670050761,0.14814285714285713,0.061,0.2033333333333333,0.1,20,15,30,3,8
1,16,32,1,7,4.208999999999997,11,24,13,14,16,23,15.676999999999989,3.842999999999997,0.061,0.366,20,10,1,3,58,16,1,3,6,1,72,6,6,Lc,0.27029310344827584,0.2401875,0.061,0.122,0.1,20,15,30,3,8
1,17,33,1,7,10.796999999999992,16,48,18,15,24,20,10.979999999999992,4.452999999999997,0.122,2.805999999999998,17,11,2,9,49,15,2,11,6,1,72,6,6,Lc,0.22408163265306122,0.29686666666666667,0.061,0.2550909090909091,0.1,20,15,30,3,8
1,17,34,1,5,6.099999999999995,11,29,37,46,40,9,15.18899999999999,0.244,1.8909999999999987,61.30499999999995,20,3,7,17,63,3,8,246,5,0.5,36,5.25,6,Lc,0.24109523809523806,0.08133333333333333,0.23637499999999995,0.2492073170731707,0.1,20,15,30,3,8
1,1,1,0,1,10.003999999999992,19,49,73,76,55,5,12.93199999999999,3.4159999999999973,8.051999999999994,1.3419999999999992,20,11,14,5,66,25,23,6,3,0,16,4,6,Lc,0.1959393939393939,0.13663999999999998,0.3500869565217391,0.22366666666666665,0.1,20,15,30,3,9
1,1,2,0,9,6.953999999999994,12,24,70,65,108,85,8.478999999999994,2.8669999999999978,4.513999999999997,0.305,19,9,13,1,31,9,18,1,4,0,13,3.25,6,Lc,0.273516129032258,0.31855555555555554,0.25077777777777777,0.305,0.1,20,15,30,3,9
1,2,3,0,3,15.005999999999988,18,68,29,67,87,9,19.702999999999985,7.8689999999999936,2.0129999999999986,3.1719999999999975,20,14,9,10,89,21,10,13,5,0,18,4.5,6,Lc,0.2213820224719101,0.3747142857142856,0.20129999999999995,0.24399999999999997,0.1,20,15,30,3,9
1,2,4,0,2,6.221999999999995,15,25,16,60,49,57,30.377999999999975,0.061,0.244,0.488,20,1,2,3,127,1,3,3,4,0.5,30,4.5,6,Lc,0.23919685039370076,0.061,0.08133333333333333,0.16266666666666665,0.1,20,15,30,3,9
1,3,5,0,6,10.613999999999992,16,49,10,9,7,11,12.38299999999999,6.526999999999995,1.2199999999999993,1.0979999999999994,20,17,3,4,59,33,4,4,6,1,72,6,6,Lc,0.2098813559322034,0.19778787878787876,0.305,0.27449999999999997,0.1,20,15,30,3,9
1,3,6,0,8,6.648999999999995,16,36,118,119,13,95,11.83399999999999,0.244,27.937999999999978,0.427,20,2,18,3,51,2,119,3,2,0,13,3.25,6,Lc,0.23203921568627447,0.122,0.23477310924369746,0.14233333333333334,0.1,20,15,30,3,9
1,4,7,0,8,4.6969999999999965,12,19,120,109,115,25,5.245999999999997,0.9759999999999995,3.781999999999997,3.537999999999997,13,6,8,12,20,6,14,20,2,0.5,17,2.75,6,Lc,0.2623,0.16266666666666665,0.27014285714285713,0.1769,0.1,20,15,30,3,9
1,4,8,0,5,8.417999999999994,18,44,38,37,41,81,8.783999999999994,0.7929999999999997,5.062999999999996,1.7079999999999989,20,2,17,5,46,2,31,6,5,0.5,33,4.5,6,Lc,0.1909565217391304,0.39649999999999996,0.16332258064516128,0.2846666666666666,0.1,20,15,30,3,9
1,5,9,0,6,4.147999999999997,12,23,8,7,3,12,5.245999999999997,12.74899999999999,12.26099999999999,3.537999999999997,17,18,16,11,28,69,38,14,6,1,72,6,6,Lc,0.18735714285714286,0.18476811594202897,0.32265789473684203,0.25271428571428567,0.1,20,15,30,3,9
1,5,10,0,7,11.77299999999999,16,59,24,13,22,20,12.56599999999999,10.064999999999992,0.061,6.526999999999995,18,17,1,15,61,47,1,28,6,1,72,6,6,Lc,0.206,0.21414893617021277,0.061,0.23310714285714282,0.1,20,15,30,3,9
1,6,11,1,6,7.319999999999994,10,32,6,5,1,7,10.735999999999992,2.683999999999998,3.4159999999999973,6.038999999999995,20,9,7,12,48,12,11,19,6,1,72,6,6,Lc,0.22366666666666665,0.22366666666666662,0.3105454545454545,0.31784210526315787,0.1,20,15,30,3,9
1,6,12,1,9,7.563999999999994,17,35,17,20,108,21,66.61199999999995,19.458999999999985,0.061,0.061,20,19,1,1,280,69,1,1,4,0.5,38,5,6,Lc,0.23789999999999997,0.28201449275362317,0.061,0.061,0.1,20,15,30,3,9
1,7,13,1,7,7.624999999999994,11,37,19,13,16,108,8.783999999999994,0.9149999999999996,11.040999999999991,2.3789999999999982,18,4,17,6,46,4,45,9,6,0.5,38,5,6,Lc,0.1909565217391304,0.22875,0.24535555555555552,0.2643333333333333,0.1,20,15,30,3,9
1,7,14,1,2,6.343999999999995,15,34,60,53,50,113,9.942999999999993,2.3789999999999982,5.428999999999996,0.061,20,8,14,1,44,10,26,1,4,0.5,26,3.5,6,Lc,0.2259772727272727,0.23789999999999997,0.2088076923076923,0.061,0.1,20,15,30,3,9
1,8,15,1,4,7.990999999999993,16,33,107,71,14,99,16.40899999999999,3.2939999999999974,9.820999999999993,3.598999999999997,20,9,17,10,67,17,43,16,2,0,14,3.5,6,Lc,0.244910447761194,0.19376470588235292,0.22839534883720927,0.22493749999999998,0.1,20,15,30,3,9
1,8,16,1,6,9.637999999999993,18,51,9,7,6,5,10.430999999999992,0.9759999999999995,9.149999999999993,5.977999999999995,20,5,15,12,55,5,41,28,6,1,72,6,6,Lc,0.18965454545454546,0.19519999999999998,0.22317073170731705,0.2135,0.1,20,15,30,3,9
1,9,17,1,6,11.467999999999991,18,56,2,1,100,6,17.384999999999987,2.744999999999998,4.940999999999996,2.9279999999999977,20,9,17,7,82,9,27,8,6,0.5,38,5,6,Lc,0.21201219512195119,0.30499999999999994,0.183,0.36599999999999994,0.1,20,15,30,3,9
1,9,18,1,5,6.160999999999995,11,30,37,48,46,38,7.502999999999995,2.500999999999998,6.587999999999995,0.6709999999999998,17,9,12,3,38,9,22,3,5,1,60,5,6,Lc,0.19744736842105262,0.2778888888888889,0.2994545454545454,0.22366666666666665,0.1,20,15,30,3,9
1,10,19,1,5,6.343999999999995,13,34,42,43,40,41,10.613999999999992,2.0129999999999986,1.2809999999999993,4.818999999999996,20,4,5,10,52,6,7,23,5,1,60,5,6,Lc,0.2041153846153846,0.3354999999999999,0.183,0.20952173913043476,0.1,20,15,30,3,9
1,10,20,1,3,7.685999999999994,18,37,20,32,26,14,14.456999999999988,0.122,1.0979999999999994,8.844999999999994,20,2,5,15,57,2,5,35,5,0,22,5.5,6,Lc,0.2536315789473684,0.061,0.2196,0.2527142857142857,0.1,20,15,30,3,9
1,11,21,1,10,6.221999999999995,15,34,92,100,31,91,19.336999999999986,4.330999999999997,1.8909999999999987,0.061,20,13,4,1,84,16,7,1,3,0,13,3.25,6,Lc,0.23020238095238094,0.27068749999999997,0.2701428571428571,0.061,0.1,20,15,30,3,9
1,11,22,1,5,7.014999999999994,14,34,48,38,24,41,8.173999999999994,7.990999999999993,7.075999999999994,4.025999999999997,20,16,13,14,44,23,23,19,5,0.5,36,5.25,6,Lc,0.18577272727272728,0.3474347826086956,0.30765217391304345,0.21189473684210525,0.1,20,15,30,3,9
1,12,23,1,7,13.48099999999999,19,66,20,18,53,21,13.663999999999989,6.343999999999995,1.2199999999999993,0.305,20,14,4,2,67,28,4,2,6,0.5,40,5.5,6,Lc,0.20394029850746268,0.22657142857142856,0.3049999999999999,0.1525,0.1,20,15,30,3,9
1,12,24,1,6,12.38299999999999,14,57,3,12,26,11,12.50499999999999,2.9279999999999977,8.783999999999994,7.075999999999994,15,11,16,14,58,14,41,24,6,0.5,41,5.75,6,Lc,0.21560344827586206,0.20914285714285713,0.2142439024390244,0.2948333333333333,0.1,20,15,30,3,9
1,13,25,1,5,4.208999999999997,13,23,48,45,39,46,8.722999999999994,0.427,8.234999999999994,3.598999999999997,20,2,17,8,40,2,43,12,5,1,60,5,6,Lc,0.218075,0.2135,0.1915116279069767,0.29991666666666655,0.1,20,15,30,3,9
1,13,26,1,6,6.8319999999999945,13,33,1,51,12,97,11.406999999999991,3.1109999999999975,0.061,4.147999999999997,20,8,1,13,46,9,1,19,6,0,18,4.5,6,Lc,0.24797826086956518,0.34566666666666657,0.061,0.21831578947368419,0.1,20,15,30,3,9
1,14,27,1,5,4.7579999999999965,10,18,39,40,23,41,10.247999999999992,2.805999999999998,4.330999999999997,5.184999999999996,20,9,13,13,40,14,22,23,5,0.5,36,5.25,6,Lc,0.2562,0.20042857142857143,0.19686363636363635,0.22543478260869565,0.1,20,15,30,3,9
1,14,28,1,10,4.025999999999997,10,15,87,95,93,88,8.783999999999994,1.646999999999999,4.025999999999997,0.305,20,8,13,1,38,8,23,1,3,1,36,3,6,Lc,0.2311578947368421,0.20587499999999997,0.17504347826086955,0.305,0.1,20,15,30,3,9
1,15,29,1,7,16.16499999999999,12,69,22,21,15,36,17.140999999999988,3.2329999999999974,15.188999999999988,5.123999999999996,17,9,18,15,74,12,64,27,6,0.5,41,5.75,6,Lc,0.23163513513513512,0.26941666666666664,0.23732812499999997,0.18977777777777777,0.1,20,15,30,3,9
1,15,30,1,6,8.722999999999994,16,38,2,11,8,12,25.436999999999983,0.061,1.8299999999999987,2.1959999999999984,20,1,7,6,95,1,9,7,6,1,72,6,6,Lc,0.2677578947368421,0.061,0.20333333333333334,0.3137142857142856,0.1,20,15,30,3,9
1,16,31,1,3,3.3549999999999973,9,12,119,120,6,29,31.841999999999974,0.244,24.39999999999998,0.061,20,2,16,1,120,2,95,1,5,0,15,3.75,6,Lc,0.26535,0.122,0.25684210526315787,0.061,0.1,20,15,30,3,9
1,16,32,1,7,9.698999999999993,12,40,24,22,23,104,11.89499999999999,0.6709999999999998,9.210999999999993,5.306999999999996,19,1,16,12,47,1,34,30,6,0.5,38,5,6,Lc,0.2530851063829787,0.6709999999999998,0.27091176470588235,0.1769,0.1,20,15,30,3,9
1,17,33,1,7,3.4159999999999973,7,13,13,14,19,49,4.513999999999997,3.1109999999999975,5.001999999999996,1.2199999999999993,14,8,13,5,20,9,23,5,6,0.5,40,5.5,6,Lc,0.22569999999999998,0.34566666666666657,0.2174782608695652,0.244,0.1,20,15,30,3,9
1,17,34,1,9,7.441999999999994,16,37,62,63,6,65,8.478999999999994,2.622999999999998,34.342999999999975,4.391999999999997,20,10,18,11,43,11,145,23,4,0.5,30,4.5,6,Lc,0.1971860465116279,0.23845454545454545,0.23684827586206894,0.1909565217391304,0.1,20,15,30,3,9
1,1,1,0,5,11.71199999999999,17,53,44,47,95,18,12.56599999999999,7.075999999999994,2.8669999999999978,3.2329999999999974,20,17,8,14,60,30,10,18,5,0,19,4.75,6,Lc,0.2094333333333333,0.23586666666666664,0.28669999999999995,0.1796111111111111,0.1,20,15,30,3,10
1,1,2,0,1,14.273999999999988,18,70,80,28,74,76,18.848999999999986,3.4159999999999973,0.7929999999999997,3.0499999999999976,20,8,3,10,93,11,3,14,3,0.5,23,3.5,6,Lc,0.2026774193548387,0.3105454545454545,0.2643333333333333,0.21785714285714286,0.1,20,15,30,3,10
1,2,3,0,4,11.467999999999991,17,50,103,98,50,45,14.334999999999988,3.2939999999999974,6.038999999999995,4.513999999999997,20,6,15,15,61,8,28,23,2,0,13,3.25,6,Lc,0.23499999999999996,0.4117499999999999,0.21567857142857141,0.19626086956521735,0.1,20,15,30,3,10
1,2,4,0,10,10.003999999999992,17,47,87,95,94,31,11.162999999999991,1.524999999999999,2.622999999999998,6.404999999999995,20,5,10,12,52,6,13,22,3,0.5,23,3.5,6,Lc,0.2146730769230769,0.25416666666666665,0.20176923076923076,0.2911363636363636,0.1,20,15,30,3,10
1,3,5,0,3,14.883999999999988,20,77,36,31,27,100,19.702999999999985,5.7339999999999955,3.598999999999997,2.3179999999999983,20,14,10,7,104,24,15,11,5,0.5,32,4.25,6,Lc,0.18945192307692307,0.23891666666666664,0.23993333333333333,0.21072727272727274,0.1,20,15,30,3,10
1,3,6,0,5,6.404999999999995,14,32,38,43,37,48,7.075999999999995,6.526999999999995,5.306999999999996,3.0499999999999976,17,16,14,11,35,32,27,15,5,1,60,5,6,Lc,0.20217142857142856,0.20396874999999998,0.19655555555555554,0.2033333333333333,0.1,20,15,30,3,10
1,4,7,0,3,6.343999999999995,16,31,28,33,76,99,8.356999999999994,4.391999999999997,6.465999999999995,3.659999999999997,20,14,15,12,42,19,24,18,5,0,15,3.75,6,Lc,0.19897619047619045,0.23115789473684206,0.26941666666666664,0.20333333333333334,0.1,20,15,30,3,10
1,4,8,0,8,6.953999999999994,13,36,119,3,112,57,7.624999999999995,28.120999999999977,0.061,0.9149999999999996,17,19,1,3,40,107,1,3,2,0,14,3.5,6,Lc,0.190625,0.2628130841121495,0.061,0.30499999999999994,0.1,20,15,30,3,10
1,5,9,0,5,6.770999999999995,11,32,45,46,113,47,7.502999999999995,0.122,19.397999999999985,3.1109999999999975,15,2,18,9,36,2,68,13,5,0.5,32,4.25,6,Lc,0.20841666666666664,0.061,0.2852647058823529,0.2393076923076923,0.1,20,15,30,3,10
1,5,10,0,10,12.26099999999999,16,53,86,31,3,32,12.99299999999999,18.055999999999987,3.0499999999999976,10.918999999999992,19,18,9,17,56,66,11,53,3,0,19,4.75,6,Lc,0.2320178571428571,0.27357575757575753,0.2772727272727272,0.20601886792452828,0.1,20,15,30,3,10
1,6,11,1,8,7.624999999999994,14,33,114,116,115,42,15.371999999999987,3.598999999999997,10.857999999999992,9.576999999999993,20,9,18,15,67,15,51,39,2,0.5,17,2.75,6,Lc,0.22943283582089552,0.2399333333333333,0.21290196078431373,0.24556410256410255,0.1,20,15,30,3,10
1,6,12,1,6,13.663999999999989,16,63,4,55,1,8,15.005999999999988,6.038999999999995,3.1109999999999975,0.8539999999999996,20,15,9,5,70,29,12,5,6,0.5,40,5.5,6,Lc,0.21437142857142855,0.2082413793103448,0.25925,0.1708,0.1,20,15,30,3,10
1,7,13,1,1,6.587999999999995,15,34,74,59,79,80,10.491999999999992,4.330999999999997,0.061,0.366,20,11,1,2,52,15,1,2,3,0.5,22,3.25,6,Lc,0.20176923076923076,0.2887333333333333,0.061,0.183,0.1,20,15,30,3,10
1,7,14,1,3,5.7339999999999955,10,25,28,32,35,100,5.916999999999995,4.635999999999997,15.005999999999988,2.805999999999998,12,14,17,8,27,23,64,10,5,0.5,32,4.25,6,Lc,0.21914814814814815,0.2015652173913043,0.23446874999999998,0.28059999999999996,0.1,20,15,30,3,10
1,8,15,1,5,9.271999999999993,17,45,41,38,39,37,12.74899999999999,1.463999999999999,1.585999999999999,4.330999999999997,20,5,5,11,58,6,6,19,5,1,60,5,6,Lc,0.21981034482758618,0.244,0.26433333333333325,0.22794736842105262,0.1,20,15,30,3,10
1,8,16,1,3,6.953999999999994,16,39,35,103,32,31,11.284999999999991,9.088999999999993,1.8299999999999987,2.805999999999998,20,17,8,8,54,34,10,9,5,0.5,32,4.25,6,Lc,0.20898148148148146,0.2673235294117647,0.183,0.3117777777777777,0.1,20,15,30,3,10
1,9,17,1,10,7.258999999999994,18,45,94,90,85,56,7.685999999999994,2.9889999999999977,5.672999999999996,30.133999999999975,20,11,10,17,48,12,15,138,3,0.5,22,3.25,6,Lc,0.160125,0.2490833333333333,0.3781999999999999,0.2183623188405797,0.1,20,15,30,3,10
1,9,18,1,6,4.7579999999999965,10,18,6,12,8,10,6.465999999999996,2.439999999999998,4.879999999999996,12.32199999999999,17,9,15,17,25,12,25,42,6,1,72,6,6,Lc,0.25864,0.20333333333333334,0.19519999999999998,0.29338095238095235,0.1,20,15,30,3,10
1,10,19,1,1,16.652999999999988,8,74,75,73,49,30,17.506999999999987,8.478999999999994,9.820999999999993,10.186999999999992,14,14,16,17,80,31,34,49,3,0,15,3.75,6,Lc,0.21883749999999996,0.273516129032258,0.28885294117647053,0.20789795918367346,0.1,20,15,30,3,10
1,10,20,1,10,5.611999999999996,15,29,89,98,99,71,10.857999999999992,7.502999999999994,22.081999999999983,0.305,20,16,17,2,58,28,94,2,3,0,11,2.75,6,Lc,0.18720689655172412,0.2679642857142857,0.23491489361702125,0.1525,0.1,20,15,30,3,10
1,11,21,1,9,3.9649999999999967,12,19,1,46,76,71,59.71899999999995,0.122,0.122,0.061,20,1,1,1,233,1,1,1,4,0,18,4.5,6,Lc,0.25630472103004287,0.122,0.122,0.061,0.1,20,15,30,3,10
1,11,22,1,7,3.842999999999997,10,20,17,14,18,58,4.391999999999997,6.282999999999995,2.3789999999999982,2.9889999999999977,14,13,10,8,24,26,17,10,6,0.5,40,5.5,6,Lc,0.183,0.2416538461538461,0.13994117647058824,0.29889999999999994,0.1,20,15,30,3,10
1,12,23,1,2,11.589999999999991,18,48,50,55,73,60,13.17599999999999,2.561999999999998,1.7079999999999989,5.062999999999996,20,11,6,11,58,12,7,22,4,0.5,27,3.75,6,Lc,0.22717241379310343,0.21349999999999997,0.244,0.2301363636363636,0.1,20,15,30,3,10
1,12,24,1,3,7.502999999999994,16,40,34,28,26,33,12.99299999999999,4.025999999999997,0.305,25.49799999999998,20,15,3,15,61,20,3,94,5,1,60,5,6,Lc,0.21299999999999997,0.2013,0.10166666666666667,0.27125531914893614,0.1,20,15,30,3,10
1,13,25,1,2,14.334999999999988,13,64,49,54,18,13,14.883999999999988,4.025999999999997,2.561999999999998,1.3419999999999992,18,11,7,2,69,17,10,2,4,0,20,5,6,Lc,0.2157101449275362,0.23682352941176468,0.25619999999999993,0.6709999999999996,0.1,20,15,30,3,10
1,13,26,1,5,19.397999999999985,11,70,37,46,62,39,21.044999999999984,8.539999999999994,1.1589999999999994,0.5489999999999999,19,16,4,2,78,40,4,2,5,0.5,34,4.75,6,Lc,0.26980769230769225,0.21349999999999997,0.28975,0.27449999999999997,0.1,20,15,30,3,10
1,14,27,1,3,6.587999999999995,15,25,30,34,108,28,8.783999999999994,0.244,8.051999999999994,2.439999999999998,20,2,16,5,40,2,34,8,5,0.5,32,4.25,6,Lc,0.2196,0.122,0.23682352941176468,0.305,0.1,20,15,30,3,10
1,14,28,1,5,7.258999999999994,15,35,46,39,84,47,7.380999999999994,9.759999999999993,0.366,2.9889999999999977,16,18,4,8,36,52,4,14,5,0.5,33,4.5,6,Lc,0.20502777777777778,0.18769230769230769,0.0915,0.2135,0.1,20,15,30,3,10
1,15,29,1,6,12.19999999999999,16,63,3,2,4,12,12.62699999999999,15.127999999999988,0.6709999999999998,7.441999999999994,20,19,3,17,67,58,3,37,6,1,72,6,6,Lc,0.18846268656716417,0.2608275862068965,0.22366666666666665,0.20113513513513512,0.1,20,15,30,3,10
1,15,30,1,8,12.99299999999999,19,54,113,116,120,16,16.28699999999999,1.2809999999999993,10.613999999999992,10.491999999999992,20,8,17,16,68,9,48,50,2,0.5,18,3,6,Lc,0.2395147058823529,0.14233333333333334,0.221125,0.20983999999999997,0.1,20,15,30,3,10
1,16,31,1,5,6.953999999999994,16,39,47,38,90,43,13.23699999999999,3.3549999999999973,1.0369999999999995,6.221999999999995,20,10,6,16,69,11,7,29,5,0.5,33,4.5,6,Lc,0.19184057971014493,0.305,0.14814285714285713,0.214551724137931,0.1,20,15,30,3,10
1,16,32,1,7,9.759999999999993,15,53,20,16,15,103,13.41999999999999,0.366,4.086999999999997,10.003999999999992,20,1,12,15,63,1,18,44,6,0.5,38,5,6,Lc,0.213015873015873,0.366,0.22705555555555554,0.22736363636363635,0.1,20,15,30,3,10
1,17,33,1,3,8.295999999999994,16,40,33,30,95,92,9.027999999999993,14.395999999999988,12.50499999999999,8.112999999999994,20,17,17,16,44,47,54,39,5,0,16,4,6,Lc,0.20518181818181816,0.3062978723404255,0.23157407407407404,0.208025641025641,0.1,20,15,30,3,10
1,17,34,1,5,9.942999999999993,13,46,45,46,76,41,10.369999999999992,3.0499999999999976,3.476999999999997,2.744999999999998,16,8,10,12,49,10,16,16,5,0.5,33,4.5,6,Lc,0.21163265306122447,0.30499999999999994,0.2173125,0.1715625,0.1,20,15,30,3,10
1,1,1,0,9,11.528999999999991,18,59,36,65,69,34,12.99299999999999,4.086999999999997,2.3179999999999983,0.9759999999999995,19,14,8,5,60,19,8,6,4,0,18,4.5,6,Hc,0.21655,0.21510526315789472,0.28975,0.16266666666666668,0.1,20,15,30,3,1
1,1,2,0,1,9.393999999999993,16,36,75,84,81,53,15.49399999999999,1.7079999999999989,1.2199999999999993,1.585999999999999,20,6,5,6,66,7,6,6,3,0.5,13,3.25,6,Hc,0.23475757575757575,0.24399999999999997,0.20333333333333334,0.2643333333333333,0.1,20,15,30,3,1
1,2,3,0,6,13.29799999999999,17,61,107,7,4,106,19.702999999999985,0.6709999999999998,3.2329999999999974,8.295999999999994,20,3,7,17,85,3,9,40,6,0,16,4,6,Hc,0.23179999999999998,0.22366666666666665,0.35922222222222217,0.2074,0.1,20,15,30,3,1
1,2,4,0,9,8.966999999999993,17,43,61,69,72,32,9.027999999999993,3.2329999999999974,5.428999999999996,3.537999999999997,18,8,14,11,44,9,22,18,4,0.5,17,4.25,6,Hc,0.20518181818181816,0.35922222222222217,0.24677272727272723,0.19655555555555554,0.1,20,15,30,3,1
1,3,5,0,3,10.918999999999992,18,54,35,28,16,78,14.395999999999988,1.8909999999999987,3.1719999999999975,4.086999999999997,20,3,11,10,63,6,15,18,5,0,19,4.75,6,Hc,0.2285079365079365,0.3151666666666666,0.21146666666666666,0.22705555555555554,0.1,20,15,30,3,1
1,3,6,0,5,8.966999999999993,13,32,46,43,41,4,9.759999999999993,1.2809999999999993,4.6969999999999965,5.367999999999996,15,3,13,15,34,4,22,19,5,0.5,21,5.25,6,Hc,0.28705882352941176,0.32025,0.2135,0.2825263157894737,0.1,20,15,30,3,1
1,4,7,0,5,9.393999999999993,16,39,37,80,45,39,13.23699999999999,0.5489999999999999,2.3789999999999982,1.524999999999999,20,1,8,5,53,1,10,6,5,0.5,18,4.5,6,Hc,0.24975471698113202,0.5489999999999999,0.2379,0.25416666666666665,0.1,20,15,30,3,1
1,4,8,0,9,9.454999999999993,17,45,64,69,2,88,10.491999999999992,8.844999999999994,14.273999999999988,3.1719999999999975,19,18,17,12,47,34,64,16,4,0,17,4.25,6,Hc,0.22323404255319146,0.2601470588235294,0.22303125,0.19824999999999998,0.1,20,15,30,3,1
1,5,9,0,2,11.89499999999999,19,60,50,53,54,5,16.34799999999999,2.1959999999999984,2.561999999999998,3.842999999999997,20,10,11,9,79,14,12,11,4,0.5,18,4.5,6,Hc,0.2069367088607595,0.15685714285714286,0.2135,0.3493636363636363,0.1,20,15,30,3,1
1,5,10,0,7,6.8319999999999945,14,29,16,22,18,81,10.491999999999992,0.6099999999999999,1.0369999999999995,2.8669999999999978,20,2,2,8,46,2,2,12,6,0.5,21,5.25,6,Hc,0.2280869565217391,0.305,0.5184999999999997,0.23891666666666664,0.1,20,15,30,3,1
1,6,11,1,7,12.07799999999999,20,75,20,21,17,47,19.092999999999986,2.439999999999998,3.903999999999997,2.744999999999998,20,10,15,9,107,14,23,18,6,0.5,23,5.75,6,Hc,0.17843925233644858,0.17428571428571427,0.16973913043478261,0.1525,0.1,20,15,30,3,1
1,6,12,1,3,9.271999999999993,16,53,25,27,107,32,19.763999999999985,6.221999999999995,1.524999999999999,0.5489999999999999,20,14,6,4,98,24,7,4,5,0.5,17,4.25,6,Hc,0.2016734693877551,0.25925,0.2178571428571428,0.13724999999999998,0.1,20,15,30,3,1
1,7,13,1,9,4.635999999999997,13,21,70,73,68,71,7.380999999999995,4.940999999999996,1.646999999999999,2.3179999999999983,20,14,8,10,35,18,9,12,4,0.5,15,3.75,6,Hc,0.21088571428571426,0.27449999999999997,0.183,0.19316666666666665,0.1,20,15,30,3,1
1,7,14,1,8,4.513999999999997,12,23,2,51,44,8,63.74499999999995,0.061,0.061,0.122,20,1,1,2,262,1,1,2,2,0,21,5.25,6,Hc,0.24330152671755723,0.061,0.061,0.061,0.1,20,15,30,3,1
1,8,15,1,3,10.674999999999992,20,56,28,27,30,10,16.713999999999988,0.122,2.0129999999999986,1.585999999999999,20,1,9,5,83,1,12,5,5,0.5,21,5.25,6,Hc,0.20137349397590362,0.122,0.16774999999999998,0.3171999999999999,0.1,20,15,30,3,1
1,8,16,1,9,10.796999999999992,19,62,95,66,63,67,13.54199999999999,0.366,0.9149999999999996,1.646999999999999,20,1,6,6,71,1,6,9,4,0.5,15,3.75,6,Hc,0.19073239436619718,0.366,0.1525,0.183,0.1,20,15,30,3,1
1,9,17,1,7,12.56599999999999,14,53,19,16,15,21,12.99299999999999,7.014999999999994,2.2569999999999983,4.452999999999997,16,17,10,13,55,33,11,21,6,1,72,6,6,Hc,0.2362363636363636,0.21257575757575756,0.2051818181818182,0.21204761904761904,0.1,20,15,30,3,1
1,9,18,1,3,8.112999999999994,14,35,31,92,25,35,10.613999999999992,1.7689999999999988,0.183,5.489999999999996,20,8,3,16,48,11,3,27,5,0.5,18,4.5,6,Hc,0.22112499999999996,0.1608181818181818,0.061,0.20333333333333334,0.1,20,15,30,3,1
1,10,19,1,5,10.430999999999992,18,48,48,47,94,46,12.26099999999999,6.343999999999995,1.3419999999999992,3.2329999999999974,20,15,4,10,56,28,4,16,5,0.5,18,4.5,6,Hc,0.21894642857142857,0.22657142857142856,0.33549999999999996,0.2020625,0.1,20,15,30,3,1
1,10,20,1,4,9.820999999999993,15,49,104,98,97,1,9.881999999999993,6.709999999999995,2.500999999999998,1.524999999999999,16,15,8,5,50,32,10,6,2,0.5,12,3,6,Hc,0.19764,0.2096875,0.2501,0.25416666666666665,0.1,20,15,30,3,1
1,11,21,1,3,5.977999999999995,14,31,27,104,29,79,9.271999999999993,2.683999999999998,2.805999999999998,12.93199999999999,20,10,8,17,41,12,8,62,5,0,15,3.75,6,Hc,0.2261463414634146,0.22366666666666665,0.3507499999999999,0.2085806451612903,0.1,20,15,30,3,1
1,11,22,1,5,7.990999999999993,13,43,46,37,4,40,12.80999999999999,1.4029999999999991,4.940999999999996,1.0979999999999994,20,5,14,4,59,6,20,5,5,0.5,21,5.25,6,Hc,0.21711864406779657,0.23383333333333334,0.24704999999999996,0.21959999999999993,0.1,20,15,30,3,1
1,12,23,1,4,10.308999999999992,17,51,108,102,103,89,15.920999999999989,0.244,1.8909999999999987,9.759999999999993,20,2,8,16,77,2,8,36,2,0.5,9,2.25,6,Hc,0.20676623376623374,0.122,0.236375,0.2711111111111111,0.1,20,15,30,3,1
1,12,24,1,3,7.990999999999993,17,40,3,32,30,27,37.63699999999997,0.061,0.061,0.122,20,1,1,1,162,1,1,1,5,0.5,21,5.25,6,Hc,0.23232716049382715,0.061,0.061,0.122,0.1,20,15,30,3,1
1,13,25,1,7,7.380999999999994,18,32,13,21,18,17,14.578999999999988,0.427,0.488,9.210999999999993,20,3,2,13,57,3,2,31,6,1,72,6,6,Hc,0.2557719298245614,0.14233333333333334,0.244,0.2971290322580644,0.1,20,15,30,3,1
1,13,26,1,1,8.661999999999994,10,41,73,9,5,3,12.26099999999999,0.183,7.014999999999994,3.0499999999999976,20,1,13,12,57,1,24,16,3,0.5,21,5.25,6,Hc,0.21510526315789472,0.183,0.2922916666666666,0.190625,0.1,20,15,30,3,1
1,14,27,1,5,5.001999999999996,10,23,37,45,43,99,6.465999999999996,0.366,5.367999999999996,7.380999999999994,18,3,13,13,32,3,25,34,5,0.5,17,4.25,6,Hc,0.20206249999999998,0.122,0.21472,0.21708823529411764,0.1,20,15,30,3,1
1,14,28,1,3,7.380999999999994,11,35,27,36,119,1,9.210999999999993,8.844999999999994,4.452999999999997,0.183,18,15,10,1,42,33,16,1,5,0,18,4.5,6,Hc,0.2193095238095238,0.268030303030303,0.27831249999999996,0.183,0.1,20,15,30,3,1
1,15,29,1,2,13.48099999999999,20,56,57,54,50,10,15.188999999999988,3.537999999999997,3.903999999999997,8.173999999999994,20,13,11,14,62,17,26,28,4,0.5,18,4.5,6,Hc,0.24498387096774193,0.2081176470588235,0.15015384615384614,0.29192857142857137,0.1,20,15,30,3,1
1,15,30,1,7,5.489999999999996,9,26,16,24,113,72,10.491999999999992,0.7319999999999998,2.8669999999999978,9.210999999999993,20,3,10,17,45,4,15,41,6,0,18,4.5,6,Hc,0.23315555555555553,0.183,0.19113333333333332,0.22465853658536583,0.1,20,15,30,3,1
1,16,31,1,3,7.8689999999999936,13,47,33,26,34,109,8.844999999999994,0.7319999999999998,2.683999999999998,4.025999999999997,18,4,12,11,53,4,18,21,5,0.5,17,4.25,6,Hc,0.16688679245283017,0.183,0.14911111111111108,0.1917142857142857,0.1,20,15,30,3,1
1,16,32,1,4,3.903999999999997,11,20,3,99,98,42,36.90499999999997,0.366,0.305,0.5489999999999999,20,2,2,4,165,2,2,5,2,0,15,3.75,6,Hc,0.22366666666666665,0.183,0.1525,0.1098,0.1,20,15,30,3,1
1,17,33,1,5,11.528999999999991,17,53,46,119,48,1,14.517999999999988,1.1589999999999994,0.427,10.125999999999992,20,5,3,16,67,5,3,42,5,0,18,4.5,6,Hc,0.21668656716417908,0.2318,0.14233333333333334,0.24109523809523808,0.1,20,15,30,3,1
1,17,34,1,7,11.406999999999991,18,55,24,22,102,62,12.44399999999999,2.0739999999999985,6.343999999999995,6.8929999999999945,20,11,14,15,59,14,25,39,6,0,18,4.5,6,Hc,0.21091525423728813,0.14814285714285713,0.25376,0.17674358974358972,0.1,20,15,30,3,1
1,18,35,1,2,8.661999999999994,12,40,55,51,35,7,13.358999999999991,0.9149999999999996,0.183,1.8299999999999987,20,3,1,3,61,3,1,3,4,0,19,4.75,6,Hc,0.219,0.305,0.183,0.6099999999999998,0.1,20,15,30,3,1
1,18,36,1,5,11.89499999999999,19,67,40,38,13,21,17.750999999999987,12.87099999999999,6.648999999999995,15.310999999999988,20,15,16,17,81,51,29,68,5,0,22,5.5,6,Hc,0.21914814814814812,0.2523725490196078,0.2292758620689655,0.22516176470588234,0.1,20,15,30,3,1
1,1,1,0,2,13.41999999999999,17,57,90,88,102,98,30.25599999999998,0.5489999999999999,1.3419999999999992,0.9759999999999995,20,5,4,5,131,5,5,6,4,0,10,2.5,6,Hc,0.23096183206106868,0.1098,0.26839999999999997,0.16266666666666665,0.1,20,15,30,3,2
1,1,2,0,1,12.38299999999999,18,71,81,33,78,75,17.201999999999988,2.9279999999999977,0.488,0.061,20,9,2,1,86,10,2,1,3,0.5,14,3.5,6,Hc,0.2000232558139535,0.2927999999999999,0.244,0.061,0.1,20,15,30,3,2
1,2,3,0,9,7.8689999999999936,18,36,62,66,63,98,10.186999999999992,0.122,0.8539999999999996,6.587999999999995,20,1,3,13,48,1,3,30,4,0.5,14,3.5,6,Hc,0.21222916666666666,0.122,0.2846666666666667,0.2196,0.1,20,15,30,3,2
1,2,4,0,2,7.014999999999994,14,33,55,85,114,88,36.41699999999997,6.099999999999995,0.244,0.5489999999999999,20,17,2,2,143,29,2,2,4,0,12,3,6,Hc,0.2546643356643356,0.21034482758620687,0.122,0.27449999999999997,0.1,20,15,30,3,2
1,3,5,0,6,8.966999999999993,17,54,4,1,2,5,11.528999999999991,1.8909999999999987,14.639999999999988,1.1589999999999994,20,7,16,4,66,7,55,4,6,1,72,6,6,Hc,0.1746818181818182,0.27014285714285713,0.26618181818181813,0.28975,0.1,20,15,30,3,2
1,3,6,0,3,4.6969999999999965,13,21,14,85,100,88,48.49499999999996,0.305,0.061,0.122,20,2,1,1,189,2,1,1,5,0,14,3.5,6,Hc,0.25658730158730153,0.1525,0.061,0.122,0.1,20,15,30,3,2
1,4,7,0,6,7.807999999999994,12,35,8,11,2,7,8.417999999999994,1.7689999999999988,5.550999999999996,2.9889999999999977,15,7,9,8,38,7,20,12,6,1,72,6,6,Hc,0.22152631578947365,0.2527142857142857,0.27754999999999996,0.2490833333333333,0.1,20,15,30,3,2
1,4,8,0,7,13.907999999999989,18,77,13,19,15,105,18.543999999999986,6.282999999999995,0.6099999999999999,0.7319999999999998,20,14,2,3,97,28,2,3,6,0.5,20,5,6,Hc,0.19117525773195876,0.22439285714285714,0.305,0.244,0.1,20,15,30,3,2
1,5,9,0,3,9.210999999999993,17,47,33,110,70,115,11.406999999999991,9.271999999999993,29.401999999999976,2.0739999999999985,20,16,18,6,57,31,118,6,5,0,13,3.25,6,Hc,0.20012280701754384,0.29909677419354835,0.2491694915254237,0.34566666666666657,0.1,20,15,30,3,2
1,5,10,0,2,10.064999999999992,18,56,57,59,107,96,12.87099999999999,5.184999999999996,0.9149999999999996,1.7689999999999988,20,15,5,7,67,25,6,9,4,0,13,3.25,6,Hc,0.1921044776119403,0.2074,0.1525,0.19655555555555554,0.1,20,15,30,3,2
1,6,11,1,3,11.345999999999991,18,50,34,26,18,49,15.737999999999989,4.940999999999996,12.13899999999999,0.183,20,12,18,1,73,25,53,1,5,0,20,5,6,Hc,0.2155890410958904,0.19764,0.22903773584905657,0.183,0.1,20,15,30,3,2
1,6,12,1,6,3.781999999999997,12,22,3,9,5,6,8.783999999999994,0.488,0.061,1.1589999999999994,20,3,1,5,39,3,1,6,6,1,72,6,6,Hc,0.2252307692307692,0.16266666666666665,0.061,0.19316666666666668,0.1,20,15,30,3,2
1,7,13,1,9,10.979999999999992,19,63,67,69,65,27,17.140999999999988,1.2199999999999993,3.781999999999997,4.452999999999997,20,6,12,12,86,6,16,19,4,0.5,17,4.25,6,Hc,0.19931395348837208,0.20333333333333334,0.236375,0.23436842105263156,0.1,20,15,30,3,2
1,7,14,1,7,16.40899999999999,13,88,18,21,17,20,17.445999999999987,4.635999999999997,1.3419999999999992,8.051999999999994,18,11,6,16,93,22,8,45,6,1,72,6,6,Hc,0.18759139784946235,0.2107272727272727,0.16775,0.17893333333333333,0.1,20,15,30,3,2
1,8,15,1,7,10.552999999999992,12,48,24,32,17,16,12.19999999999999,4.269999999999997,3.2329999999999974,1.2809999999999993,19,12,9,6,57,21,15,7,6,0.5,23,5.75,6,Hc,0.21403508771929822,0.2033333333333333,0.21553333333333333,0.183,0.1,20,15,30,3,2
1,8,16,1,10,7.014999999999994,19,33,89,96,99,98,18.482999999999986,0.122,7.014999999999994,14.517999999999988,20,2,17,17,80,2,31,60,3,0,10,2.5,6,Hc,0.23103749999999998,0.061,0.22629032258064516,0.24196666666666664,0.1,20,15,30,3,2
1,9,17,1,10,5.916999999999995,12,19,16,89,60,109,65.39199999999995,0.061,0.6709999999999998,0.5489999999999999,20,1,1,2,258,1,1,2,3,0,15,3.75,6,Hc,0.25345736434108523,0.061,0.6709999999999998,0.27449999999999997,0.1,20,15,30,3,2
1,9,18,1,5,8.600999999999994,15,45,38,103,37,40,10.125999999999992,1.0979999999999994,3.659999999999997,2.805999999999998,19,5,9,7,50,5,17,12,5,0.5,17,4.25,6,Hc,0.20251999999999998,0.2196,0.2152941176470588,0.2338333333333333,0.1,20,15,30,3,2
1,10,19,1,10,9.576999999999993,18,47,89,85,113,41,10.064999999999992,24.15599999999998,6.8319999999999945,6.343999999999995,19,19,16,13,48,110,35,28,3,0,13,3.25,6,Hc,0.20968749999999997,0.2196,0.19519999999999998,0.22657142857142856,0.1,20,15,30,3,2
1,10,20,1,7,6.709999999999995,13,30,16,21,24,103,16.40899999999999,0.366,1.524999999999999,8.722999999999994,20,2,6,15,60,2,8,30,6,0.5,20,5,6,Hc,0.2734833333333333,0.183,0.190625,0.2907666666666666,0.1,20,15,30,3,2
1,11,21,1,6,13.17599999999999,18,56,8,3,2,4,15.737999999999987,1.646999999999999,9.088999999999993,2.500999999999998,20,7,17,7,72,7,44,10,6,1,72,6,6,Hc,0.21858333333333332,0.23528571428571424,0.20656818181818182,0.2501,0.1,20,15,30,3,2
1,11,22,1,1,6.404999999999995,13,32,79,73,76,84,7.502999999999995,4.208999999999997,4.513999999999997,4.086999999999997,17,14,13,11,36,20,20,15,3,1,36,3,6,Hc,0.20841666666666667,0.21045,0.22569999999999996,0.27246666666666663,0.1,20,15,30,3,2
1,12,23,1,3,10.552999999999992,15,54,33,28,26,32,11.650999999999991,1.7689999999999988,1.4029999999999991,4.879999999999996,20,9,6,10,60,11,7,18,5,1,60,5,6,Hc,0.19418333333333332,0.1608181818181818,0.20042857142857143,0.2711111111111111,0.1,20,15,30,3,2
1,12,24,1,9,3.598999999999997,12,18,16,117,112,70,101.44300000000386,0.061,0.061,0.061,20,1,1,1,400,1,1,1,4,0,14,3.5,6,Hc,0.2536075,0.061,0.061,0.061,0.1,20,15,30,3,2
1,13,25,1,6,9.942999999999993,16,46,7,8,1,114,12.07799999999999,9.637999999999993,3.476999999999997,1.8299999999999987,20,15,12,5,52,42,19,7,6,0.5,20,5,6,Hc,0.23226923076923076,0.22947619047619044,0.183,0.2614285714285714,0.1,20,15,30,3,2
1,13,26,1,1,7.136999999999994,14,36,73,74,83,80,7.563999999999994,3.0499999999999976,4.330999999999997,0.6099999999999999,17,11,11,4,39,13,14,4,3,1,36,3,6,Hc,0.19394871794871796,0.2346153846153846,0.30935714285714283,0.1525,0.1,20,15,30,3,2
1,14,27,1,1,7.197999999999994,8,34,82,73,12,77,11.406999999999991,0.183,27.998999999999977,0.061,20,2,18,1,51,2,124,1,3,0.5,15,3.75,6,Hc,0.22366666666666665,0.0915,0.22579838709677416,0.061,0.1,20,15,30,3,2
1,14,28,1,7,5.672999999999996,13,30,15,24,104,94,10.247999999999992,2.1349999999999985,6.343999999999995,3.2939999999999974,20,9,14,11,49,12,25,15,6,0,17,4.25,6,Hc,0.20914285714285713,0.17791666666666667,0.25376,0.2196,0.1,20,15,30,3,2
1,15,29,1,5,6.709999999999995,13,27,48,38,24,98,8.966999999999993,3.781999999999997,7.380999999999994,0.9149999999999996,20,10,12,3,42,14,24,3,5,0,18,4.5,6,Hc,0.21349999999999997,0.27014285714285713,0.30754166666666666,0.305,0.1,20,15,30,3,2
1,15,30,1,3,4.208999999999997,11,21,36,119,120,117,15.798999999999989,5.7339999999999955,1.4029999999999991,1.524999999999999,20,14,3,4,73,27,4,6,5,0.5,11,2.75,6,Hc,0.21642465753424656,0.21237037037037038,0.35074999999999995,0.2541666666666666,0.1,20,15,30,3,2
1,16,31,1,9,10.003999999999992,19,53,65,64,66,120,12.32199999999999,2.622999999999998,0.061,8.478999999999994,20,11,1,14,64,17,1,30,4,0.5,14,3.5,6,Hc,0.19253125,0.15429411764705883,0.061,0.2826333333333333,0.1,20,15,30,3,2
1,16,32,1,2,9.820999999999993,17,43,50,51,105,57,14.94499999999999,0.488,0.5489999999999999,3.1719999999999975,20,1,4,8,74,1,5,10,4,0.5,14,3.5,6,Hc,0.20195945945945945,0.488,0.1098,0.3171999999999999,0.1,20,15,30,3,2
1,17,33,1,6,6.099999999999995,11,26,11,7,4,8,12.07799999999999,4.025999999999997,1.8299999999999987,5.001999999999996,20,11,8,12,45,18,11,23,6,1,72,6,6,Hc,0.26839999999999997,0.22366666666666665,0.16636363636363635,0.2174782608695652,0.1,20,15,30,3,2
1,17,34,1,2,10.491999999999992,17,51,51,52,21,58,10.857999999999992,1.9519999999999986,21.593999999999983,2.622999999999998,19,5,18,7,53,7,90,7,4,0.5,18,4.5,6,Hc,0.20486792452830188,0.2788571428571428,0.23993333333333333,0.37471428571428567,0.1,20,15,30,3,2
1,1,1,0,5,7.380999999999994,17,39,1,39,44,41,12.74899999999999,3.476999999999997,1.8909999999999987,2.500999999999998,20,8,8,10,58,13,9,15,5,0.5,21,5.25,6,Hc,0.21981034482758618,0.2674615384615384,0.2101111111111111,0.16673333333333332,0.1,20,15,30,3,3
1,1,2,0,1,13.11499999999999,19,61,82,100,78,27,15.981999999999987,1.0369999999999995,3.3549999999999973,7.8689999999999936,20,4,12,16,69,4,14,25,3,0,13,3.25,6,Hc,0.23162318840579707,0.25925,0.23964285714285713,0.31475999999999993,0.1,20,15,30,3,3
1,2,3,0,5,9.942999999999993,17,44,44,52,84,76,11.040999999999991,5.7949999999999955,4.391999999999997,0.5489999999999999,20,9,11,2,49,19,19,2,5,0,15,3.75,6,Hc,0.2253265306122449,0.30499999999999994,0.2311578947368421,0.27449999999999997,0.1,20,15,30,3,3
1,2,4,0,6,13.602999999999989,20,66,6,32,4,8,17.750999999999987,7.807999999999994,3.2329999999999974,5.855999999999995,20,17,9,15,87,31,17,24,6,0.5,23,5.75,6,Hc,0.20403448275862068,0.25187096774193546,0.19017647058823528,0.24399999999999997,0.1,20,15,30,3,3
1,3,5,0,7,12.13899999999999,20,70,17,99,78,74,19.885999999999985,7.197999999999994,2.2569999999999983,4.147999999999997,20,16,7,11,107,30,7,15,6,0,14,3.5,6,Hc,0.1858504672897196,0.2399333333333333,0.32242857142857134,0.2765333333333333,0.1,20,15,30,3,3
1,3,6,0,5,11.223999999999991,20,56,41,47,37,11,12.50499999999999,4.818999999999996,0.7319999999999998,13.724999999999989,20,9,4,15,63,14,4,45,5,0.5,21,5.25,6,Hc,0.19849206349206347,0.34421428571428564,0.183,0.30499999999999994,0.1,20,15,30,3,3
1,4,7,0,1,8.966999999999993,16,39,73,75,14,81,13.60299999999999,1.2809999999999993,7.197999999999994,2.561999999999998,20,2,12,8,54,2,26,12,3,0.5,15,3.75,6,Hc,0.25190740740740736,0.6404999999999997,0.2768461538461538,0.2135,0.1,20,15,30,3,3
1,4,8,0,2,8.783999999999994,12,42,57,59,30,106,13.72499999999999,0.061,13.907999999999989,3.2939999999999974,20,1,18,13,63,1,52,18,4,0,15,3.75,6,Hc,0.21785714285714283,0.061,0.2674615384615384,0.183,0.1,20,15,30,3,3
1,5,9,0,3,11.589999999999991,19,51,35,53,32,26,11.650999999999991,4.513999999999997,2.439999999999998,1.7689999999999988,20,15,7,6,52,25,8,6,5,0.5,19,4.75,6,Hc,0.22405769230769226,0.18056,0.30499999999999994,0.2948333333333333,0.1,20,15,30,3,3
1,5,10,0,9,6.282999999999995,15,28,67,61,63,71,9.637999999999993,3.0499999999999976,0.488,0.6099999999999999,20,12,4,2,42,16,4,2,4,1,48,4,6,Hc,0.22947619047619044,0.190625,0.122,0.305,0.1,20,15,30,3,3
1,6,11,1,1,10.247999999999992,10,37,83,33,81,76,14.212999999999989,19.702999999999985,0.061,0.122,20,18,1,2,49,86,1,2,3,0.5,14,3.5,6,Hc,0.2900612244897959,0.22910465116279066,0.061,0.061,0.1,20,15,30,3,3
1,6,12,1,9,11.650999999999991,13,61,64,71,62,72,19.275999999999986,3.842999999999997,3.0499999999999976,1.2199999999999993,20,11,11,4,88,14,15,4,4,1,48,4,6,Hc,0.21904545454545452,0.27449999999999997,0.2033333333333333,0.30499999999999994,0.1,20,15,30,3,3
1,7,13,1,1,3.476999999999997,10,19,13,77,101,49,437.8579999999596,0.061,0.183,0.061,20,1,3,1,1796,1,3,1,3,0,15,3.75,6,Hc,0.2437962138084632,0.061,0.061,0.061,0.1,20,15,30,3,3
